File: doc/files/data_raw_demo/20240326_DCP2_JULE_Ni_W_130224_BCV_EIS_i_004_01_PEIS_C01.mpt
EC-Lab ASCII FILE
Nb header lines : 70

Potentio Electrochemical Impedance Spectroscopy

Run on channel : 1 (SN 14323)
User :
Electrode connection : CE to ground
Potential control : Ewe
Ewe ctrl range : min = -10,00 V, max = 10,00 V
Ewe,I filtering : 50 kHz
Safety Limits :
	Do not start on E overload
Channel : Floating
Acquisition started on : 03/26/2024 15:31:47.051
Technique started on : 03/26/2024 15:31:48.344
Loaded Setting File :  C:\Users\Operator\Documents\DCP2_rawdata\CV\2024-03-26\20240326_DCP2_JULE_Ni_W_130224_BCV_EIS_i_000.mps
Saved on :
	File : 20240326_DCP2_JULE_Ni_W_130224_BCV_EIS_i_004_01_PEIS_C01.mpr
	Directory : C:\Users\Operator\Documents\DCP2_rawdata\CV\2024-03-26\
	Host : 134.60.37.140
Device : VSP-300 (SN 0936)
Address : USB
EC-Lab for windows v11.41 (software)
Internet server v11.40 (firmware)
Command interpretor v11.41 (firmware)
Electrode material :
Initial state :
Electrolyte :
Comments :
Cable : standard
Electrode surface area : 0,001 cm²
Characteristic mass : 0,001 g
Equivalent Weight : 0,000 g/eq.
Density : 0,000 g/cm3
Volume (V) : 0,001 cm³
Record Ece
Text export
   Mode : Standard
   Time format : Elapsed
Cycle Definition : Charge/Discharge alternance
Mode                Single sine
E (V)               1,5000
vs.                 Ref
tE (h:m:s)          0:00:0,0000
record              0
dI                  0,000
unit dI             mA
dt (s)              0,000
fi                  100,000
unit fi             kHz
ff                  1,000
unit ff             Hz
Nd                  20
Points              per decade
spacing             Logarithmic
Va (mV)             50,0
pw                  0,10
Na                  2
corr                0
E range min (V)     -10,000
E range max (V)     10,000
I Range             Auto
Bandwidth           8
nc cycles           0
goto Ns'            0
nr cycles           0
inc. cycle          0

freq/Hz	Re(Z)/Ohm	-Im(Z)/Ohm	|Z|/Ohm	Phase(Z)/deg	time/s	<Ewe>/V	<I>/mA	Cs/µF	Cp/µF	cycle number	I Range	|Ewe|/V	|I|/A	Ns	(Q-Qo)/mA.h	<Ece>/V	|Ece|/V	Phase(Zce)/deg	|Zce|/Ohm	Re(Zce)/Ohm	-Im(Zce)/Ohm	Phase(Zwe-ce)/deg	|Zwe-ce|/Ohm	Re(Zwe-ce)/Ohm	-Im(Zwe-ce)/Ohm	Re(Y)/Ohm-1	Im(Y)/Ohm-1	|Y|/Ohm-1	Phase(Y)/deg	dq/mA.h
1,0000371E+005	1,2771152E+002	6,1239581E+000	1,2785827E+002	-2,7453151E+000	1,292525661381660E+000	1,4994906E+000	3,7831161E-002	2,5987935E-001	5,9618161E-004	1,000000000000000E+000	39	4,9533181E-002	3,8740694E-004	0	1,568984265144293E-005	9,4632798E-001	5,2926905E-002	-4,6956530E+000	1,3661838E+002	1,3615984E+002	1,1183976E+001	-3,7527871E+000	2,6443839E+002	2,6387137E+002	1,7307934E+001	7,8121843E-003	3,7460585E-004	7,8211604E-003	2,7453151E+000	1,568984265144293E-005
8,9129305E+004	1,2777981E+002	5,4041533E+000	1,2789404E+002	-2,4217501E+000	1,669559999281773E+000	1,4994979E+000	3,5612289E-002	3,3042428E-001	5,8996561E-004	1,000000000000000E+000	39	5,0581086E-002	3,9549216E-004	0	1,991448599145386E-005	9,0192735E-001	5,4059651E-002	-4,1715479E+000	1,3668956E+002	1,3632744E+002	9,9432001E+000	-3,3257353E+000	2,6455280E+002	2,6410724E+002	1,5347353E+001	7,8119892E-003	3,3039012E-004	7,8189727E-003	2,4217501E+000	4,224643340010922E-006
7,9433273E+004	1,2779106E+002	4,7882409E+000	1,2788074E+002	-2,1458285E+000	2,046557270485209E+000	1,4994841E+000	3,4346066E-002	4,1844818E-001	5,8665586E-004	1,000000000000000E+000	39	5,0689977E-002	3,9638477E-004	0	2,324656170835968E-005	0,0000000E+000	5,4163378E-002	-3,7230635E+000	1,3664343E+002	1,3635506E+002	8,8728046E+000	-2,9605715E+000	2,6449915E+002	2,6414612E+002	1,3661045E+001	7,8143021E-003	2,9279638E-004	7,8197857E-003	2,1458285E+000	3,332075716905820E-006
7,0794984E+004	1,2783609E+002	4,2282896E+000	1,2790600E+002	-1,8944170E+000	2,423552035092143E+000	1,4994874E+000	3,3732712E-002	5,3168321E-001	5,8103265E-004	1,000000000000000E+000	39	5,0694976E-002	3,9634557E-004	0	2,659168227816958E-005	0,0000000E+000	5,4194473E-002	-3,2646689E+000	1,3673541E+002	1,3651350E+002	7,7868619E+000	-2,6024022E+000	2,6462253E+002	2,6434961E+002	1,2015152E+001	7,8139687E-003	2,5845380E-004	7,8182416E-003	1,8944170E+000	3,345120569809900E-006
6,3093828E+004	1,2776785E+002	3,7992733E+000	1,2782433E+002	-1,7032312E+000	2,800537946313852E+000	1,4994878E+000	3,3433683E-002	6,6394597E-001	5,8655231E-004	1,000000000000000E+000	39	5,0677966E-002	3,9646574E-004	0	3,101758577633882E-005	0,0000000E+000	5,4194063E-002	-2,9345999E+000	1,3669293E+002	1,3651367E+002	6,9981370E+000	-2,3395588E+000	2,6450201E+002	2,6428152E+002	1,0797410E+001	7,8197811E-003	2,3252706E-004	7,8232372E-003	1,7032312E+000	4,425903498169241E-006
5,6237012E+004	1,2786796E+002	3,3213859E+000	1,2791109E+002	-1,4879303E+000	3,177533537585987E+000	1,4994891E+000	3,3209592E-002	8,5207641E-001	5,7451433E-004	1,000000000000000E+000	39	5,0693903E-002	3,9632141E-004	0	3,370161686057772E-005	0,0000000E+000	5,4186113E-002	-2,6133406E+000	1,3672266E+002	1,3658046E+002	6,2339492E+000	-2,0693724E+000	2,6462100E+002	2,6444843E+002	9,5553350E+000	7,8152949E-003	2,0300323E-004	7,8179305E-003	1,4879303E+000	2,684031084238899E-006
5,0122477E+004	1,2784801E+002	2,9154286E+000	1,2788125E+002	-1,3063388E+000	3,554532808804652E+000	1,4994977E+000	3,3023164E-002	1,0891438E+000	5,6607800E-004	1,000000000000000E+000	39	5,0688151E-002	3,9636891E-004	0	3,674446710412869E-005	0,0000000E+000	5,4191045E-002	-2,3202715E+000	1,3671870E+002	1,3660661E+002	5,5350995E+000	-1,8302380E+000	2,6458960E+002	2,6445462E+002	8,4505281E+000	7,8177229E-003	1,7827429E-004	7,8197550E-003	1,3063388E+000	3,042850243550976E-006
4,4666715E+004	1,2783157E+002	2,5606472E+000	1,2785722E+002	-1,1475620E+000	3,931555493356427E+000	1,4994771E+000	3,2824058E-002	1,3915101E+000	5,5813004E-004	1,000000000000000E+000	39	5,0670836E-002	3,9630799E-004	0	3,950808017238806E-005	0,0000000E+000	5,4219961E-002	-2,0481024E+000	1,3681268E+002	1,3672528E+002	4,8894825E+000	-1,6130680E+000	2,6466174E+002	2,6455685E+002	7,4501295E+000	7,8196563E-003	1,5663877E-004	7,8212246E-003	1,1475620E+000	2,763613068259374E-006
3,9814063E+004	1,2778695E+002	2,2699518E+000	1,2780711E+002	-1,0176703E+000	4,308550204586936E+000	1,4994913E+000	3,2714810E-002	1,7610310E+000	5,5550796E-004	1,000000000000000E+000	39	5,0652701E-002	3,9632147E-004	0	4,333836978296879E-005	0,0000000E+000	5,4168999E-002	-1,8387283E+000	1,3667944E+002	1,3660907E+002	4,3855453E+000	-1,4419709E+000	2,6447977E+002	2,6439603E+002	6,6554971E+000	7,8230575E-003	1,3896539E-004	7,8242915E-003	1,0176703E+000	3,830289610580725E-006
3,5481000E+004	1,2777445E+002	1,9018114E+000	1,2778860E+002	-8,5273474E-001	4,685569075838430E+000	1,4994737E+000	3,2699898E-002	2,3586137E+000	5,2240514E-004	1,000000000000000E+000	39	5,0653290E-002	3,9638346E-004	0	4,711102774343291E-005	0,0000000E+000	5,4168485E-002	-1,6045909E+000	1,3665677E+002	1,3660318E+002	3,8266265E+000	-1,2412698E+000	2,6443967E+002	2,6437762E+002	5,7284379E+000	7,8245569E-003	1,1646171E-004	7,8254240E-003	8,5273474E-001	3,772657960464124E-006
3,1621143E+004	1,2777127E+002	1,6945534E+000	1,2778251E+002	-7,5983483E-001	5,062520800420316E+000	1,4994668E+000	3,2506384E-002	2,9702110E+000	5,2234204E-004	1,000000000000000E+000	39	5,0655387E-002	3,9641879E-004	0	5,062352471087554E-005	0,0000000E+000	5,4213986E-002	-1,4315734E+000	1,3675937E+002	1,3671669E+002	3,4166689E+000	-1,1071014E+000	2,6453735E+002	2,6448798E+002	5,1112223E+000	7,8251092E-003	1,0377970E-004	7,8257974E-003	7,5983483E-001	3,512496967442631E-006
2,8188094E+004	1,2777224E+002	1,5286680E+000	1,2778139E+002	-6,8545443E-001	5,439520684973104E+000	1,4994684E+000	3,2510113E-002	3,6935267E+000	5,2860641E-004	1,000000000000000E+000	39	5,0634731E-002	3,9626061E-004	0	5,389994856967112E-005	0,0000000E+000	5,4175865E-002	-1,2712861E+000	1,3671776E+002	1,3668411E+002	3,0332623E+000	-9,8826677E-001	2,6449570E+002	2,6445636E+002	4,5619302E+000	7,8253066E-003	9,3622024E-005	7,8258663E-003	6,8545443E-001	3,276423858795576E-006
2,5116906E+004	1,2770666E+002	1,3226156E+000	1,2771351E+002	-5,9337223E-001	5,816517556231702E+000	1,4994835E+000	3,2417271E-002	4,7909355E+000	5,1382353E-004	1,000000000000000E+000	39	5,0601065E-002	3,9620762E-004	0	5,677880859519549E-005	0,0000000E+000	5,4163229E-002	-1,1189929E+000	1,3670416E+002	1,3667809E+002	2,6696777E+000	-8,6511868E-001	2,6441489E+002	2,6438474E+002	3,9922934E+000	7,8296056E-003	8,1088634E-005	7,8300256E-003	5,9337223E-001	2,878860025524370E-006
2,2389031E+004	1,2772640E+002	1,1862816E+000	1,2773191E+002	-5,3212935E-001	6,193541334156180E+000	1,4994863E+000	3,2321077E-002	5,9923482E+000	5,1686104E-004	1,000000000000000E+000	39	5,0604880E-002	3,9618040E-004	0	6,105099655879732E-005	0,0000000E+000	5,4165743E-002	-9,9286652E-001	1,3671989E+002	1,3669937E+002	2,3690717E+000	-7,7032751E-001	2,6444968E+002	2,6442578E+002	3,5553532E+000	7,8285588E-003	7,2709125E-005	7,8288969E-003	5,3212935E-001	4,272187963601832E-006
1,9948781E+004	1,2765285E+002	1,0464730E+000	1,2765714E+002	-4,6968907E-001	6,570555218699155E+000	1,4994768E+000	3,2331143E-002	7,6238742E+000	5,1232037E-004	1,000000000000000E+000	39	5,0547190E-002	3,9596055E-004	0	6,420081499840793E-005	0,0000000E+000	5,4093149E-002	-8,8688225E-001	1,3661247E+002	1,3659610E+002	2,1145420E+000	-6,8535435E-001	2,6426788E+002	2,6424896E+002	3,1610150E+000	7,8332191E-003	6,4215201E-005	7,8334827E-003	4,6968907E-001	3,149818439610605E-006
1,7786891E+004	1,2757942E+002	9,1043055E-001	1,2758267E+002	-4,0886644E-001	6,947549903270556E+000	1,4994966E+000	3,2243516E-002	9,8281841E+000	5,0047634E-004	1,000000000000000E+000	39	5,0520275E-002	3,9598069E-004	0	6,851754633730161E-005	0,0000000E+000	5,4075055E-002	-7,8627443E-001	1,3655983E+002	1,3654697E+002	1,8739624E+000	-6,0398370E-001	2,6414108E+002	2,6412640E+002	2,7843928E+000	7,8378553E-003	5,5932396E-005	7,8380546E-003	4,0886644E-001	4,316731338893678E-006
1,5847683E+004	1,2758157E+002	8,8302249E-001	1,2758463E+002	-3,9655143E-001	7,202549595414894E+000	1,4994779E+000	3,2263651E-002	1,1373198E+001	5,4479041E-004	1,000000000000000E+000	39	5,4742932E-002	4,2907154E-004	0	7,082618000725495E-005	0,0000000E+000	5,8618080E-002	-7,1718425E-001	1,3661610E+002	1,3660541E+002	1,7100099E+000	-5,6234807E-001	2,6419971E+002	2,6418698E+002	2,5930324E+000	7,8377472E-003	5,4246921E-005	7,8379354E-003	3,9655143E-001	2,308633669953348E-006
1,4121883E+004	1,2752791E+002	8,2927388E-001	1,2753060E+002	-3,7257117E-001	7,579542226652848E+000	1,4994799E+000	3,2351650E-002	1,3590316E+001	5,7464110E-004	1,000000000000000E+000	39	5,0901998E-002	3,9913555E-004	0	7,347767280133040E-005	0,0000000E+000	5,4546516E-002	-6,3223791E-001	1,3666164E+002	1,3665332E+002	1,5079803E+000	-5,0689191E-001	2,6419156E+002	2,6418121E+002	2,3372543E+000	7,8410897E-003	5,0988139E-005	7,8412555E-003	3,7257117E-001	2,651492794075443E-006
1,2590930E+004	1,2751713E+002	7,2000033E-001	1,2751916E+002	-3,2350591E-001	7,834549438761314E+000	1,4994918E+000	3,2338601E-002	1,7556166E+001	5,5968564E-004	1,000000000000000E+000	39	5,4312035E-002	4,2591276E-004	0	7,594259181045921E-005	0,0000000E+000	5,8176618E-002	-5,6712776E-001	1,3659280E+002	1,3658611E+002	1,3520072E+000	-4,4950166E-001	2,6411136E+002	2,6410324E+002	2,0720074E+000	7,8418339E-003	4,4277371E-005	7,8419587E-003	3,2350591E-001	2,464919009128816E-006
1,1217713E+004	1,2748155E+002	7,4819291E-001	1,2748375E+002	-3,3626673E-001	8,211559723335085E+000	1,4994853E+000	3,2393411E-002	1,8962790E+001	6,5316027E-004	1,000000000000000E+000	39	5,0756015E-002	3,9813714E-004	0	7,846395457752917E-005	0,0000000E+000	5,4378450E-002	-5,2513283E-001	1,3658221E+002	1,3657648E+002	1,2517991E+000	-4,3395349E-001	2,6406561E+002	2,6405804E+002	1,9999920E+000	7,8440020E-003	4,6036675E-005	7,8441370E-003	3,3626673E-001	2,521362767069963E-006
1,0002226E+004	1,2756107E+002	7,0711756E-001	1,2756303E+002	-3,1760815E-001	8,466523175447946E+000	1,4994773E+000	3,2309141E-002	2,2502558E+001	6,9145742E-004	1,000000000000000E+000	39	5,3134143E-002	4,1653245E-004	0	8,040349800024554E-005	0,0000000E+000	5,6928087E-002	-4,7355944E-001	1,3667143E+002	1,3666676E+002	1,1295999E+000	-3,9827168E-001	2,6423422E+002	2,6422784E+002	1,8367175E+000	7,8391414E-003	4,3455217E-005	7,8392616E-003	3,1760815E-001	1,939543422716368E-006
8,9166387E+003	1,2758089E+002	6,9248849E-001	1,2758276E+002	-3,1098920E-001	8,843517273344332E+000	1,4995275E+000	3,2262161E-002	2,5775457E+001	7,5935962E-004	1,000000000000000E+000	39	5,1387891E-002	4,0278083E-004	0	8,384760731839611E-005	0,0000000E+000	5,5066198E-002	-4,2006171E-001	1,3671504E+002	1,3671136E+002	1,0023118E+000	-3,6740988E-001	2,6429767E+002	2,6429224E+002	1,6948004E+000	7,8379335E-003	4,2543041E-005	7,8380490E-003	3,1098920E-001	3,444109318150563E-006
7,9424009E+003	1,2752921E+002	6,5753531E-001	1,2753090E+002	-2,9541206E-001	9,098537818790646E+000	1,4995401E+000	3,2243147E-002	3,0475386E+001	8,1013341E-004	1,000000000000000E+000	39	5,4264121E-002	4,2549783E-004	0	8,625342490519537E-005	0,0000000E+000	5,8146305E-002	-3,6902004E-001	1,3665477E+002	1,3665193E+002	8,8013464E-001	-3,3348706E-001	2,6418564E+002	2,6418115E+002	1,5376699E+000	7,8411326E-003	4,0428557E-005	7,8412369E-003	2,9541206E-001	2,405817586799262E-006
7,0794971E+003	1,2756709E+002	7,5114876E-001	1,2756930E+002	-3,3736882E-001	9,475523010041798E+000	1,4995338E+000	3,2149184E-002	2,9928968E+001	1,0376511E-003	1,000000000000000E+000	39	5,0680161E-002	3,9727552E-004	0	8,932351833468440E-005	0,0000000E+000	5,4255787E-002	-3,1152603E-001	1,3656967E+002	1,3656766E+002	7,4254680E-001	-3,2400712E-001	2,6413895E+002	2,6413474E+002	1,4936955E+000	7,8387409E-003	4,6156583E-005	7,8388769E-003	3,3736882E-001	3,070093429489036E-006
6,3093828E+003	1,2761180E+002	6,8574941E-001	1,2761364E+002	-3,0788824E-001	9,730556595459348E+000	1,4995418E+000	3,2073498E-002	3,6784752E+001	1,0621956E-003	1,000000000000000E+000	39	5,2844767E-002	4,1409966E-004	0	9,183640236180528E-005	0,0000000E+000	5,6582510E-002	-3,0685124E-001	1,3663983E+002	1,3663788E+002	7,3177993E-001	-3,0735198E-001	2,6425351E+002	2,6424969E+002	1,4175293E+000	7,8360401E-003	4,2108644E-005	7,8361528E-003	3,0788824E-001	2,512884027120881E-006
5,6227744E+003	1,2763499E+002	6,9872946E-001	1,2763690E+002	-3,1365889E-001	9,985569300915813E+000	1,4995311E+000	3,2191318E-002	4,0509830E+001	1,2140205E-003	1,000000000000000E+000	39	5,4753762E-002	4,2898065E-004	0	9,439008575073523E-005	0,0000000E+000	5,8656540E-002	-2,9327676E-001	1,3673470E+002	1,3673291E+002	6,9989336E-001	-3,0311713E-001	2,6437158E+002	2,6436789E+002	1,3986228E+000	7,8346077E-003	4,2890053E-005	7,8347251E-003	3,1365889E-001	2,553683388929946E-006
5,0103887E+003	1,2771485E+002	7,0606595E-001	1,2771680E+002	-3,1675398E-001	1,036252219884773E+001	1,4995348E+000	3,2223012E-002	4,4988697E+001	1,3749847E-003	1,000000000000000E+000	39	5,0653346E-002	3,9660675E-004	0	9,755971448940666E-005	0,0000000E+000	5,4228887E-002	-2,4888283E-001	1,3673213E+002	1,3673083E+002	5,9393859E-001	-2,8166151E-001	2,6444888E+002	2,6444568E+002	1,3000045E+000	7,8297043E-003	4,3286174E-005	7,8298235E-003	3,1675398E-001	3,169628738671434E-006
4,4655278E+003	1,2772295E+002	7,5304133E-001	1,2772517E+002	-3,3780608E-001	1,063311442502891E+001	1,4995546E+000	3,2048516E-002	4,7329132E+001	1,6451790E-003	1,000000000000000E+000	39	5,1943421E-002	4,0668115E-004	0	9,969631497974924E-005	0,0000000E+000	5,5584773E-002	-2,0483778E-001	1,3667900E+002	1,3667813E+002	4,8863921E-001	-2,6907048E-001	2,6440402E+002	2,6440109E+002	1,2416805E+000	7,8291744E-003	4,6160003E-005	7,8293104E-003	3,3780608E-001	2,136600490342571E-006
3,9796606E+003	1,2766347E+002	8,3420092E-001	1,2766619E+002	-3,7438676E-001	1,093221675921814E+001	1,4995514E+000	3,2153662E-002	4,7940598E+001	2,0468826E-003	1,000000000000000E+000	39	5,3035717E-002	4,1542493E-004	0	1,021427563798113E-004	0,0000000E+000	5,6774344E-002	-2,2115734E-001	1,3666571E+002	1,3666469E+002	5,2751791E-001	-2,9516363E-001	2,6433167E+002	2,6432816E+002	1,3617189E+000	7,8327600E-003	5,1182189E-005	7,8329276E-003	3,7438676E-001	2,446441400062100E-006
3,5480037E+003	1,2769160E+002	8,4693187E-001	1,2769441E+002	-3,8001648E-001	1,126393365502008E+001	1,4995600E+000	3,2157015E-002	5,2964832E+001	2,3299188E-003	1,000000000000000E+000	39	5,3964626E-002	4,2260758E-004	0	1,053738287057531E-004	0,0000000E+000	5,7750963E-002	-1,7393394E-001	1,3665387E+002	1,3665324E+002	4,1484225E-001	-2,7348283E-001	2,6434787E+002	2,6434485E+002	1,2617741E+000	7,8310240E-003	5,1940333E-005	7,8311963E-003	3,8001648E-001	3,231072325941782E-006
3,1630769E+003	1,2766562E+002	8,9463484E-001	1,2766875E+002	-4,0150169E-001	1,163167268583493E+001	1,4995540E+000	3,2069396E-002	5,6242493E+001	2,7617663E-003	1,000000000000000E+000	39	5,4737661E-002	4,2874750E-004	0	1,089869021757303E-004	0,0000000E+000	5,8592159E-002	-1,4451879E-001	1,3665889E+002	1,3665846E+002	3,4469828E-001	-2,6864004E-001	2,6432700E+002	2,6432410E+002	1,2393332E+000	7,8325784E-003	5,4887896E-005	7,8327702E-003	4,0150169E-001	3,613073469977180E-006
2,8175339E+003	1,2778156E+002	9,1765112E-001	1,2778485E+002	-4,1145712E-001	1,223762412795077E+001	1,4995453E+000	3,2066040E-002	6,1556419E+001	3,1744598E-003	1,000000000000000E+000	39	5,0543811E-002	3,9553837E-004	0	1,149517654129664E-004	0,0000000E+000	5,4104824E-002	-1,0376845E-001	1,3678780E+002	1,3678757E+002	2,4773639E-001	-2,5237772E-001	2,6457169E+002	2,6456912E+002	1,1653875E+000	7,8254519E-003	5,6197739E-005	7,8256540E-003	4,1145712E-001	5,964863237236073E-006
2,5124104E+003	1,2779127E+002	9,9480551E-001	1,2779514E+002	-4,4601643E-001	1,268365932246525E+001	1,4995475E+000	3,1945232E-002	6,3678284E+001	3,8586822E-003	1,000000000000000E+000	39	5,1032003E-002	3,9932661E-004	0	1,191004050878793E-004	0,0000000E+000	5,4594565E-002	-9,4331384E-002	1,3671657E+002	1,3671638E+002	2,2508913E-001	-2,6424310E-001	2,6451047E+002	2,6450766E+002	1,2198946E+000	7,8247860E-003	6,0912931E-005	7,8250235E-003	4,4601643E-001	4,148639674912881E-006
2,2492781E+003	1,2782140E+002	1,0616798E+000	1,2782581E+002	-4,7588569E-001	1,312997777032433E+001	1,4995631E+000	3,2058954E-002	6,6647430E+001	4,5976238E-003	1,000000000000000E+000	39	5,1404946E-002	4,0214841E-004	0	1,228791263553212E-004	0,0000000E+000	5,4966889E-002	-5,6724302E-002	1,3668309E+002	1,3668303E+002	1,3531977E-001	-2,5928697E-001	2,6450714E+002	2,6450443E+002	1,1969995E+000	7,8228759E-003	6,4976521E-005	7,8231459E-003	4,7588569E-001	3,778721267441948E-006
1,9956381E+003	1,2786573E+002	1,1756324E+000	1,2787113E+002	-5,2677816E-001	1,357579611150140E+001	1,4995420E+000	3,1928830E-002	6,7837029E+001	5,7340949E-003	1,000000000000000E+000	39	5,1747043E-002	4,0468120E-004	0	1,271211978048790E-004	0,0000000E+000	5,5338580E-002	-3,6577839E-002	1,3674611E+002	1,3674608E+002	8,7299220E-002	-2,7345756E-001	2,6461484E+002	2,6461182E+002	1,2629316E+000	7,8200428E-003	7,1899602E-005	7,8203734E-003	5,2677816E-001	4,242071449557755E-006
1,7782897E+003	1,2792648E+002	1,2636547E+000	1,2793272E+002	-5,6594795E-001	1,402208042601706E+001	1,4995530E+000	3,1888936E-002	7,0825432E+001	6,9100750E-003	1,000000000000000E+000	39	5,2025374E-002	4,0666197E-004	0	1,309877449171949E-004	0,0000000E+000	5,5594314E-002	-2,2825416E-002	1,3670891E+002	1,3670889E+002	5,4461911E-002	-2,8538096E-001	2,6463867E+002	2,6463538E+002	1,3181167E+000	7,8162272E-003	7,7208504E-005	7,8166081E-003	5,6594795E-001	3,866547112315948E-006
1,5844927E+003	1,2798273E+002	1,3906503E+000	1,2799029E+002	-6,2254691E-001	1,446793356718263E+001	1,4995512E+000	3,1991467E-002	7,2229057E+001	8,5269511E-003	1,000000000000000E+000	39	5,2235577E-002	4,0812141E-004	0	1,344961003699617E-004	0,0000000E+000	5,5789728E-002	-8,1969379E-003	1,3669885E+002	1,3669885E+002	1,9556625E-002	-3,0526546E-001	2,6468533E+002	2,6468158E+002	1,4102069E+000	7,8126322E-003	8,4891442E-005	7,8130933E-003	6,2254691E-001	3,508355452766824E-006
1,4127418E+003	1,2801277E+002	1,5188682E+000	1,2802179E+002	-6,7978096E-001	1,491415737502393E+001	1,4995565E+000	3,1907946E-002	7,4171532E+001	1,0440220E-002	1,000000000000000E+000	39	5,2391782E-002	4,0924113E-004	0	1,387227099499796E-004	0,0000000E+000	5,5932995E-002	1,3079215E-002	1,3667491E+002	1,3667491E+002	-3,1199515E-002	-3,2202572E-001	2,6469186E+002	2,6468768E+002	1,4876688E+000	7,8106201E-003	9,2672795E-005	7,8111701E-003	6,7978096E-001	4,226609580017888E-006
1,2587905E+003	1,2811011E+002	1,6303055E+000	1,2812048E+002	-7,2909611E-001	1,536011902286555E+001	1,4995623E+000	3,1957164E-002	7,7552834E+001	1,2557365E-002	1,000000000000000E+000	39	5,2542552E-002	4,1010269E-004	0	1,428893630876369E-004	0,0000000E+000	5,6031439E-002	5,2394066E-002	1,3662782E+002	1,3662776E+002	-1,2493916E-001	-3,2579476E-001	2,6474213E+002	2,6473785E+002	1,5053663E+000	7,8045214E-003	9,9318895E-005	7,8051533E-003	7,2909611E-001	4,166653137657294E-006
1,1217966E+003	1,2820064E+002	1,8404156E+000	1,2821385E+002	-8,2246703E-001	1,580459523064201E+001	1,4995562E+000	3,1881474E-002	7,7088593E+001	1,5883712E-002	1,000000000000000E+000	39	5,2638747E-002	4,1055429E-004	0	1,470720147205939E-004	0,0000000E+000	5,6082532E-002	3,0169480E-002	1,3660199E+002	1,3660197E+002	-7,1928695E-002	-3,8264474E-001	2,6480853E+002	2,6480261E+002	1,7684869E+000	7,7986657E-003	1,1195565E-004	7,7994694E-003	8,2246703E-001	4,182651632956966E-006
9,9968164E+002	1,2826462E+002	2,0005808E+000	1,2828021E+002	-8,9358658E-001	1,625098762521520E+001	1,4995418E+000	3,1813614E-002	7,9579704E+001	1,9355088E-002	1,000000000000000E+000	39	5,2722335E-002	4,1099353E-004	0	1,513728819647036E-004	0,0000000E+000	5,6129135E-002	8,3950989E-002	1,3656940E+002	1,3656924E+002	-2,0010430E-001	-3,8952011E-001	2,6484000E+002	2,6483386E+002	1,8004766E+000	7,7944864E-003	1,2157288E-004	7,7954344E-003	8,9358658E-001	4,300867244109720E-006
8,9142474E+002	1,2843280E+002	2,1947024E+000	1,2845155E+002	-9,7899407E-001	1,669552985965856E+001	1,4995542E+000	3,1773344E-002	8,1350426E+001	2,3748292E-002	1,000000000000000E+000	39	5,2800141E-002	4,1105103E-004	0	1,551283369807829E-004	0,0000000E+000	5,6114368E-002	9,4863974E-002	1,3651436E+002	1,3651418E+002	-2,2602516E-001	-4,2572606E-001	2,6495428E+002	2,6494696E+002	1,9686773E+000	7,7839000E-003	1,3301388E-004	7,7850362E-003	9,7899407E-001	3,755455016079293E-006
7,9423932E+002	1,2852747E+002	2,4373004E+000	1,2855057E+002	-1,0863849E+000	1,714105836083763E+001	1,4995550E+000	3,1849038E-002	8,2216629E+001	2,9554920E-002	1,000000000000000E+000	39	5,2852783E-002	4,1114390E-004	0	1,588931626817381E-004	0,0000000E+000	5,6042366E-002	1,5475549E-001	1,3630840E+002	1,3630789E+002	-3,6816755E-001	-4,4763723E-001	2,6484344E+002	2,6483536E+002	2,0691328E+000	7,7776415E-003	1,4748948E-004	7,7790399E-003	1,0863849E+000	3,764825700955241E-006
7,0796161E+002	1,2874475E+002	2,6470847E+000	1,2877196E+002	-1,1778765E+000	1,758747686198330E+001	1,4995296E+000	3,1742401E-002	8,4926376E+001	3,5886876E-002	1,000000000000000E+000	39	5,2910153E-002	4,1088255E-004	0	1,625490595850497E-004	0,0000000E+000	5,6016635E-002	1,0861591E-001	1,3633247E+002	1,3633223E+002	-2,5844601E-001	-5,1628482E-001	2,6508774E+002	2,6507697E+002	2,3886387E+000	7,7640251E-003	1,5963394E-004	7,7656661E-003	1,1778765E+000	3,655896903311553E-006
6,3100977E+002	1,2890953E+002	2,8748963E+000	1,2894159E+002	-1,2775791E+000	1,803159661640530E+001	1,4995575E+000	3,1558950E-002	8,7732780E+001	4,3613426E-002	1,000000000000000E+000	39	5,2924093E-002	4,1045016E-004	0	1,666158230597620E-004	0,0000000E+000	5,5946995E-002	1,7250155E-001	1,3630643E+002	1,3630582E+002	-4,1037986E-001	-5,3240633E-001	2,6522678E+002	2,6521533E+002	2,4645164E+000	7,7535217E-003	1,7291638E-004	7,7554495E-003	1,2775791E+000	4,066763474712295E-006
5,6233929E+002	1,2908327E+002	3,0864902E+000	1,2912016E+002	-1,3697295E+000	1,847505733085563E+001	1,4995394E+000	3,1636134E-002	9,1697357E+001	5,2396040E-002	1,000000000000000E+000	39	5,2947100E-002	4,1006066E-004	0	1,705215601407164E-004	0,0000000E+000	5,5786166E-002	1,6235091E-001	1,3604369E+002	1,3604314E+002	-3,8548714E-001	-5,8368659E-001	2,6514017E+002	2,6512640E+002	2,7010031E+000	7,7425111E-003	1,8512997E-004	7,7447239E-003	1,3697295E+000	3,905737080954469E-006
5,0112231E+002	1,2936131E+002	3,3557491E+000	1,2940483E+002	-1,4859710E+000	1,891940263196011E+001	1,4995453E+000	3,1517942E-002	9,4642654E+001	6,3645087E-002	1,000000000000000E+000	39	5,2974578E-002	4,0937093E-004	0	1,746115369509490E-004	0,0000000E+000	5,5634052E-002	1,4505498E-001	1,3590132E+002	1,3590088E+002	-3,4405926E-001	-6,5048736E-001	2,6527930E+002	2,6526221E+002	3,0116899E+000	7,7250879E-003	2,0039575E-004	7,7276868E-003	1,4859710E+000	4,089976810232562E-006
4,4657214E+002	1,2963982E+002	3,5875683E+000	1,2968945E+002	-1,5851616E+000	1,936314198633772E+001	1,4995450E+000	3,1573866E-002	9,9340958E+001	7,6018512E-002	1,000000000000000E+000	39	5,2993394E-002	4,0861760E-004	0	1,784658346262788E-004	0,0000000E+000	5,5442184E-002	1,2684429E-001	1,3568231E+002	1,3568198E+002	-3,0038008E-001	-7,0982629E-001	2,6534213E+002	2,6532178E+002	3,2871883E+000	7,7077765E-003	2,1329999E-004	7,7107274E-003	1,5851616E+000	3,854297675329773E-006
3,9808899E+002	1,2999338E+002	3,8271377E+000	1,3004970E+002	-1,6863592E+000	1,981087486096658E+001	1,4995595E+000	3,1558204E-002	1,0446382E+002	9,0468079E-002	1,000000000000000E+000	39	5,3013254E-002	4,0763844E-004	0	1,819933096100067E-004	0,0000000E+000	5,5237141E-002	8,7508082E-002	1,3550523E+002	1,3550508E+002	-2,0695762E-001	-7,8120291E-001	2,6552316E+002	2,6549847E+002	3,6201801E+000	7,6860376E-003	2,2628480E-004	7,6893680E-003	1,6863592E+000	3,527474983727909E-006
3,5488681E+002	1,3036308E+002	4,0129666E+000	1,3042484E+002	-1,7631791E+000	2,025692874882952E+001	1,4995469E+000	3,1585425E-002	1,1175442E+002	1,0579745E-001	1,000000000000000E+000	39	5,3012814E-002	4,0646255E-004	0	1,858713075776137E-004	0,0000000E+000	5,4973923E-002	1,4302743E-003	1,3524966E+002	1,3524966E+002	-3,3762369E-003	-8,6484998E-001	2,6564301E+002	2,6561273E+002	4,0095906E+000	7,6636211E-003	2,3590923E-004	7,6672514E-003	1,7631791E+000	3,877997967606967E-006
3,1631589E+002	1,3068117E+002	4,2044015E+000	1,3074878E+002	-1,8427401E+000	2,070100508991163E+001	1,4995590E+000	3,1546276E-002	1,1967267E+002	1,2374511E-001	1,000000000000000E+000	39	5,3010415E-002	4,0543717E-004	0	1,900914584990541E-004	0,0000000E+000	5,4711398E-002	-1,0597073E-001	1,3494421E+002	1,3494398E+002	2,4958432E-001	-9,6064198E-001	2,6566251E+002	2,6562515E+002	4,4539857E+000	7,6442994E-003	2,4593985E-004	7,6482547E-003	1,8427401E+000	4,220150921440422E-006
2,8189420E+002	1,3112872E+002	4,4138069E+000	1,3120299E+002	-1,9278542E+000	2,114351961758803E+001	1,4995421E+000	3,1464994E-002	1,2791476E+002	1,4476377E-001	1,000000000000000E+000	39	5,3027358E-002	4,0416274E-004	0	1,936362713172235E-004	0,0000000E+000	5,4477196E-002	-1,7353874E-001	1,3479025E+002	1,3478963E+002	4,0825513E-001	-1,0388660E+000	2,6596207E+002	2,6591833E+002	4,8220620E+000	7,6174638E-003	2,5640463E-004	7,6217777E-003	1,9278542E+000	3,544812818169398E-006
2,5120601E+002	1,3151375E+002	4,4961758E+000	1,3159058E+002	-1,9580586E+000	2,158687289198861E+001	1,4995402E+000	3,1629052E-002	1,4091164E+002	1,6450678E-001	1,000000000000000E+000	39	5,3029325E-002	4,0298724E-004	0	1,979830279990917E-004	0,0000000E+000	5,4210886E-002	-3,1362334E-001	1,3452258E+002	1,3452057E+002	7,3634064E-001	-1,1267812E+000	2,6608575E+002	2,6603430E+002	5,2325163E+000	7,5948909E-003	2,5965323E-004	7,5993282E-003	1,9580586E+000	4,346756681868194E-006
2,2392496E+002	1,3197472E+002	4,5731044E+000	1,3205392E+002	-1,9845830E+000	2,203485939328675E+001	1,4995408E+000	3,1555224E-002	1,5541986E+002	1,8639150E-001	1,000000000000000E+000	39	5,3055625E-002	4,0177241E-004	0	2,014788600111472E-004	0,0000000E+000	5,3928282E-002	-4,7634012E-001	1,3422595E+002	1,3422131E+002	1,1159019E+000	-1,2243098E+000	2,6625684E+002	2,6619604E+002	5,6890063E+000	7,5681219E-003	2,6224577E-004	7,5726639E-003	1,9845830E+000	3,495832012055558E-006
1,9955338E+002	1,3233502E+002	4,7021856E+000	1,3241853E+002	-2,0350025E+000	2,248136485446594E+001	1,4995655E+000	3,1457163E-002	1,6961385E+002	2,1387661E-001	1,000000000000000E+000	39	5,3041428E-002	4,0055896E-004	0	2,049296468581152E-004	0,0000000E+000	5,3710204E-002	-6,8478620E-001	1,3408813E+002	1,3407855E+002	1,6025530E+000	-1,3556647E+000	2,6648816E+002	2,6641357E+002	6,3047385E+000	7,5470502E-003	2,6816508E-004	7,5518130E-003	2,0350025E+000	3,450786846967982E-006
1,7778128E+002	1,3268092E+002	4,7625976E+000	1,3276637E+002	-2,0557563E+000	2,293233399585006E+001	1,4995592E+000	3,1519804E-002	1,8797073E+002	2,4188103E-001	1,000000000000000E+000	39	5,3019945E-002	3,9934771E-004	0	2,085710772497898E-004	0,0000000E+000	5,3477731E-002	-9,3056101E-001	1,3391270E+002	1,3389505E+002	2,1748278E+000	-1,4907401E+000	2,6666623E+002	2,6657599E+002	6,9374256E+000	7,5271800E-003	2,7018905E-004	7,5320276E-003	2,0557563E+000	3,641430391674585E-006
1,5852898E+002	1,3304211E+002	4,7679510E+000	1,3312752E+002	-2,0524826E+000	2,338171537726157E+001	1,4995568E+000	3,1517193E-002	2,1056184E+002	2,7008942E-001	1,000000000000000E+000	39	5,3038269E-002	3,9840201E-004	0	2,125663983237925E-004	0,0000000E+000	5,3291097E-002	-1,2149186E+000	1,3376212E+002	1,3373204E+002	2,8361235E+000	-1,6327047E+000	2,6688251E+002	2,6677417E+002	7,6040745E+000	7,5067757E-003	2,6902716E-004	7,5115948E-003	2,0524826E+000	3,995321074002690E-006
1,4121979E+002	1,3339226E+002	4,8335156E+000	1,3347980E+002	-2,0752249E+000	2,382413134488161E+001	1,4995621E+000	3,1495191E-002	2,3316396E+002	3,0574307E-001	1,000000000000000E+000	39	5,3029217E-002	3,9728271E-004	0	2,167992609274103E-004	0,0000000E+000	5,3131722E-002	-1,4553956E+000	1,3373781E+002	1,3369467E+002	3,3967683E+000	-1,7650111E+000	2,6721368E+002	2,6708691E+002	8,2302837E+000	7,4868570E-003	2,7128891E-004	7,4917707E-003	2,0752249E+000	4,232862603617831E-006
1,2592673E+002	1,3371452E+002	4,8777976E+000	1,3380347E+002	-2,0891774E+000	2,426638424591511E+001	1,4995618E+000	3,1551123E-002	2,5910657E+002	3,4434298E-001	1,000000000000000E+000	39	5,3027980E-002	3,9631245E-004	0	2,202162364936060E-004	0,0000000E+000	5,2991070E-002	-1,8111824E+000	1,3371033E+002	1,3364352E+002	4,2260261E+000	-1,9502283E+000	2,6751297E+002	2,6735803E+002	9,1038237E+000	7,4686804E-003	2,7245143E-004	7,4736481E-003	2,0891774E+000	3,416975566195707E-006
1,1219009E+002	1,3398064E+002	4,9630189E+000	1,3407253E+002	-2,1214266E+000	2,470396488005645E+001	1,4995548E+000	3,1361338E-002	2,8583783E+002	3,9168054E-001	1,000000000000000E+000	39	5,3029746E-002	3,9553031E-004	0	2,241377423641881E-004	0,0000000E+000	5,2938797E-002	-2,1349690E+000	1,3384258E+002	1,3374966E+002	4,9861197E+000	-2,1281922E+000	2,6791507E+002	2,6773029E+002	9,9491386E+000	7,4535375E-003	2,7609995E-004	7,4586496E-003	2,1214266E+000	3,921505870582123E-006
9,9968163E+001	1,3426555E+002	5,0842314E+000	1,3436177E+002	-2,1685822E+000	2,514997084790957E+001	1,4995852E+000	3,1426217E-002	3,1313611E+002	4,4836563E-001	1,000000000000000E+000	39	5,3031191E-002	3,9468959E-004	0	2,281600011742711E-004	0,0000000E+000	5,2857198E-002	-2,5560722E+000	1,3392093E+002	1,3378769E+002	5,9724822E+000	-2,3620088E+000	2,6828116E+002	2,6805322E+002	1,1056713E+001	7,4372627E-003	2,8162671E-004	7,4425931E-003	2,1685822E+000	4,022258810082967E-006
8,9115646E+001	1,3449042E+002	5,1005554E+000	1,3458710E+002	-2,1719043E+000	2,559985905594658E+001	1,4995712E+000	3,1443365E-002	3,5014560E+002	5,0289440E-001	1,000000000000000E+000	39	5,3014856E-002	3,9390742E-004	0	2,321067488370374E-004	0,0000000E+000	5,2824453E-002	-2,9431901E+000	1,3410373E+002	1,3392683E+002	6,8856592E+000	-2,5568535E+000	2,6868472E+002	2,6841724E+002	1,1986215E+001	7,4247951E-003	2,8158573E-004	7,4301329E-003	2,1719043E+000	3,946747662766313E-006
7,9415741E+001	1,3473683E+002	5,2819524E+000	1,3484032E+002	-2,2449594E+000	2,604834427722381E+001	1,4995673E+000	3,1298697E-002	3,7941898E+002	5,8219504E-001	1,000000000000000E+000	39	5,3036112E-002	3,9332535E-004	0	2,364294831580280E-004	0,0000000E+000	5,2832574E-002	-3,3674476E+000	1,3432283E+002	1,3409090E+002	7,8900180E+000	-2,8051245E+000	2,6915024E+002	2,6882773E+002	1,3171970E+001	7,4104872E-003	2,9050591E-004	7,4161794E-003	2,2449594E+000	4,322734320990614E-006
7,0793182E+001	1,3488815E+002	5,5103316E+000	1,3500066E+002	-2,3392959E+000	2,648864267150202E+001	1,4995390E+000	3,1434420E-002	4,0799139E+002	6,7972726E-001	1,000000000000000E+000	39	5,3021297E-002	3,9274845E-004	0	2,402393688966477E-004	0,0000000E+000	5,2854471E-002	-3,8476543E+000	1,3457588E+002	1,3427255E+002	9,0305490E+000	-3,0922863E+000	2,6955319E+002	2,6916071E+002	1,4540880E+001	7,4011986E-003	3,0234721E-004	7,4073714E-003	2,3392959E+000	3,809885738619619E-006
6,3082279E+001	1,3508737E+002	5,7240644E+000	1,3520859E+002	-2,4263458E+000	2,694696103991009E+001	1,4995648E+000	3,1397507E-002	4,4076620E+002	7,8996658E-001	1,000000000000000E+000	39	5,3030197E-002	3,9221026E-004	0	2,444259198756441E-004	0,0000000E+000	5,2964740E-002	-4,3015432E+000	1,3504170E+002	1,3466130E+002	1,0128881E+001	-3,3633654E+000	2,7021408E+002	2,6974866E+002	1,5852945E+001	7,3893494E-003	3,1310931E-004	7,3959799E-003	2,4263458E+000	4,186550978996413E-006
5,6241825E+001	1,3525473E+002	6,0413208E+000	1,3538959E+002	-2,5574872E+000	2,738341602063156E+001	1,4995482E+000	3,1375136E-002	4,6841290E+002	9,3265730E-001	1,000000000000000E+000	39	5,3027630E-002	3,9166695E-004	0	2,479301987459483E-004	0,0000000E+000	5,3074941E-002	-4,7964201E+000	1,3551039E+002	1,3503584E+002	1,1330780E+001	-3,6774528E+000	2,7084830E+002	2,7029059E+002	1,7372101E+001	7,3787356E-003	3,2958039E-004	7,3860926E-003	2,5574872E+000	3,504278870304276E-006
5,0112232E+001	1,3545459E+002	6,3317971E+000	1,3560249E+002	-2,6763315E+000	2,782746774840052E+001	1,4995606E+000	3,1273346E-002	5,0159061E+002	1,0936240E+000	1,000000000000000E+000	39	5,3010266E-002	3,9092396E-004	0	2,520805095648951E-004	0,0000000E+000	5,3199094E-002	-5,3088012E+000	1,3608553E+002	1,3550179E+002	1,2591115E+001	-3,9949071E+000	2,7161633E+002	2,7095636E+002	1,8922913E+001	7,3664519E-003	3,4434331E-004	7,3744957E-003	2,6763315E+000	4,150310818946718E-006
4,4671223E+001	1,3560280E+002	6,7315683E+000	1,3576978E+002	-2,8419333E+000	2,827531971634016E+001	1,4995565E+000	3,1490345E-002	5,2926849E+002	1,3010750E+000	1,000000000000000E+000	39	5,3032096E-002	3,9060312E-004	0	2,560877037480006E-004	0,0000000E+000	5,3405307E-002	-5,8927345E+000	1,3672525E+002	1,3600278E+002	1,4037089E+001	-4,3726835E+000	2,7239850E+002	2,7160559E+002	2,0768658E+001	7,3563512E-003	3,6518258E-004	7,3654098E-003	2,8419333E+000	4,007194183105567E-006
3,9808899E+001	1,3587617E+002	7,2287374E+000	1,3606833E+002	-3,0453172E+000	2,872281019094225E+001	1,4995395E+000	3,1365812E-002	5,5306671E+002	1,5609475E+000	1,000000000000000E+000	39	5,3033635E-002	3,8975739E-004	0	2,598002166927076E-004	0,0000000E+000	5,3541984E-002	-6,4770741E+000	1,3737259E+002	1,3649574E+002	1,5496403E+001	-4,7693825E+000	2,7331830E+002	2,7237192E+002	2,2725140E+001	7,3388708E-003	3,9043467E-004	7,3492490E-003	3,0453172E+000	3,712512944706954E-006
3,5488308E+001	1,3607085E+002	7,7376227E+000	1,3629066E+002	-3,2546003E+000	2,916313474517665E+001	1,4995635E+000	3,1545531E-002	5,7959857E+002	1,8681432E+000	1,000000000000000E+000	39	5,3017814E-002	3,8900546E-004	0	2,629263407073190E-004	0,0000000E+000	5,3819969E-002	-7,0443001E+000	1,3835274E+002	1,3730840E+002	1,6967127E+001	-5,1636825E+000	2,7449323E+002	2,7337924E+002	2,4704750E+001	7,3254253E-003	4,1655786E-004	7,3372596E-003	3,2546003E+000	3,126124014611457E-006
3,1629578E+001	1,3621129E+002	8,3621883E+000	1,3646773E+002	-3,5130534E+000	2,958657484527794E+001	1,4995334E+000	3,1312868E-002	6,0173712E+002	2,2593670E+000	1,000000000000000E+000	39	5,3019509E-002	3,8851314E-004	0	2,672671896556001E-004	0,0000000E+000	5,4082230E-002	-7,7262578E+000	1,3920309E+002	1,3793936E+002	1,8714510E+001	-5,6405687E+000	2,7548453E+002	2,7415063E+002	2,7076698E+001	7,3139700E-003	4,4901413E-004	7,3277396E-003	3,5130534E+000	4,340848948281061E-006
2,8187037E+001	1,3644058E+002	9,0952959E+000	1,3674339E+002	-3,8137641E+000	3,005974084111222E+001	1,4995716E+000	3,1552240E-002	6,2080310E+002	2,7464700E+000	1,000000000000000E+000	39	5,3008195E-002	3,8764722E-004	0	2,711534897194764E-004	0,0000000E+000	5,4390367E-002	-8,3953800E+000	1,4030893E+002	1,3880539E+002	2,0485561E+001	-6,1340694E+000	2,7683093E+002	2,7524597E+002	2,9580856E+001	7,2967731E-003	4,8641179E-004	7,3129674E-003	3,8137641E+000	3,886300063876344E-006
2,5120602E+001	1,3669868E+002	9,8351822E+000	1,3705203E+002	-4,1152196E+000	3,050394672885886E+001	1,4995581E+000	3,1415399E-002	6,4418066E+002	3,3174281E+000	1,000000000000000E+000	39	5,3021640E-002	3,8687233E-004	0	2,746417789361068E-004	0,0000000E+000	5,4717805E-002	-9,1256227E+000	1,4143634E+002	1,3964618E+002	2,2431751E+001	-6,6598868E+000	2,7822226E+002	2,7634485E+002	3,2266933E+001	7,2776866E-003	5,2361423E-004	7,2964989E-003	4,1152196E+000	3,488289216630304E-006
2,2385418E+001	1,3695454E+002	1,0828035E+001	1,3738193E+002	-4,5205717E+000	3,090556216126424E+001	1,4995472E+000	3,1378862E-002	6,5660663E+002	4,0789218E+000	1,000000000000000E+000	39	5,3028535E-002	3,8599354E-004	0	2,782284971037103E-004	0,0000000E+000	5,5023249E-002	-9,8956652E+000	1,4254967E+002	1,4042886E+002	2,4497812E+001	-7,2577686E+000	2,7962381E+002	2,7738342E+002	3,5325848E+001	7,2563337E-003	5,7370740E-004	7,2789779E-003	4,5205717E+000	3,586718167603595E-006
1,9955338E+001	1,3723392E+002	1,1754424E+001	1,3773639E+002	-4,8955770E+000	3,135232452911441E+001	1,4995553E+000	3,1394523E-002	6,7851538E+002	4,9415708E+000	1,000000000000000E+000	39	5,3019684E-002	3,8493593E-004	0	2,826030137076240E-004	0,0000000E+000	5,5420898E-002	-1,0665055E+001	1,4397433E+002	1,4148730E+002	2,6644939E+001	-7,8442469E+000	2,8135391E+002	2,7872122E+002	3,8399364E+001	7,2337589E-003	6,1958941E-004	7,2602453E-003	4,8955770E+000	4,374516603913641E-006
1,7775894E+001	1,3752315E+002	1,2896151E+001	1,3812650E+002	-5,3572106E+000	3,184993879278773E+001	1,4995607E+000	3,1624574E-002	6,9427026E+002	6,0519423E+000	1,000000000000000E+000	39	5,3024046E-002	3,8388034E-004	0	2,880208744533576E-004	0,0000000E+000	5,5831455E-002	-1,1495362E+001	1,4543973E+002	1,4252232E+002	2,8984482E+001	-8,5055141E+000	2,8315976E+002	2,8004547E+002	4,1880630E+001	7,2081173E-003	6,7593687E-004	7,2397408E-003	5,3572106E+000	5,417860745733660E-006
1,5846864E+001	1,3792673E+002	1,4126562E+001	1,3864827E+002	-5,8478866E+000	3,227320702621364E+001	1,4995619E+000	3,1728975E-002	7,1095209E+002	7,3804765E+000	1,000000000000000E+000	39	5,3021774E-002	3,8241930E-004	0	2,920319157694838E-004	0,0000000E+000	5,6295101E-002	-1,2361541E+001	1,4720779E+002	1,4379495E+002	3,1514200E+001	-9,2023401E+000	2,8539478E+002	2,8172168E+002	4,5640762E+001	7,1749608E-003	7,3486503E-004	7,2124954E-003	5,8478866E+000	4,011041316126192E-006
1,4127493E+001	1,3829115E+002	1,5478437E+001	1,3915468E+002	-6,3863330E+000	3,300028530074633E+001	1,4995582E+000	3,1938989E-002	7,2782660E+002	9,0050583E+000	1,000000000000000E+000	40	5,3052992E-002	3,8125194E-004	0	2,967686922595700E-004	0,0000000E+000	5,6788903E-002	-1,3289487E+001	1,4895374E+002	1,4496492E+002	3,4240170E+001	-9,9554453E+000	2,8758640E+002	2,8325607E+002	4,9718605E+001	7,1416534E-003	7,9933990E-004	7,1862480E-003	6,3863330E+000	4,736776490086182E-006
1,2587309E+001	1,3866638E+002	1,7008886E+001	1,3970564E+002	-6,9929967E+000	3,352624577903771E+001	1,4995619E+000	3,2092530E-002	7,4338086E+002	1,1018824E+001	1,000000000000000E+000	40	5,3044904E-002	3,7969049E-004	0	3,009931345335354E-004	0,0000000E+000	5,7284381E-002	-1,4294853E+001	1,5087126E+002	1,4619997E+002	3,7251919E+001	-1,0784405E+001	2,8998804E+002	2,8486633E+002	5,4260803E+001	7,1046595E-003	8,7146100E-004	7,1579069E-003	6,9929967E+000	4,224442273965327E-006
1,1216775E+001	1,3916917E+002	1,8712322E+001	1,4042154E+002	-7,6579123E+000	3,392617534470628E+001	1,4995648E+000	3,2162279E-002	7,5827106E+002	1,3465186E+001	1,000000000000000E+000	40	5,3040329E-002	3,7772217E-004	0	3,040385463953118E-004	0,0000000E+000	5,7869349E-002	-1,5290164E+001	1,5320612E+002	1,4778304E+002	4,0401596E+001	-1,1640438E+001	2,9297784E+002	2,8695221E+002	5,9113918E+001	7,0579010E-003	9,4898691E-004	7,1214144E-003	7,6579123E+000	3,045411861776477E-006
9,9968166E+000	1,3970621E+002	2,0579021E+001	1,4121375E+002	-8,3795309E+000	3,437192323259660E+001	1,4995528E+000	3,2193579E-002	7,7363068E+002	1,6429684E+001	1,000000000000000E+000	40	5,3049501E-002	3,7566811E-004	0	3,080932486130219E-004	0,0000000E+000	5,8425590E-002	-1,6390032E+001	1,5552449E+002	1,4920445E+002	4,3885052E+001	-1,2578257E+001	2,9601517E+002	2,8891064E+002	6,4464073E+001	7,0058652E-003	1,0319789E-003	7,0814635E-003	8,3795309E+000	4,054702217710059E-006
8,9082127E+000	1,4024889E+002	2,2630924E+001	1,4206305E+002	-9,1663828E+000	3,486942866953905E+001	1,4995500E+000	3,2392465E-002	7,8945483E+002	2,0034088E+001	1,000000000000000E+000	40	5,3048506E-002	3,7341521E-004	0	3,135444460304974E-004	0,0000000E+000	5,9077736E-002	-1,7571983E+001	1,5820924E+002	1,5082695E+002	4,7763966E+001	-1,3595580E+001	2,9946716E+002	2,9107584E+002	7,0394890E+001	6,9492375E-003	1,1213470E-003	7,0391279E-003	9,1663828E+000	5,451197417475555E-006
7,9395623E+000	1,4087668E+002	2,4925791E+001	1,4306479E+002	-1,0033694E+001	3,542282080250152E+001	1,4995458E+000	3,2653339E-002	8,0421954E+002	2,4412205E+001	1,000000000000000E+000	40	5,3053312E-002	3,7083417E-004	0	3,158535868927413E-004	0,0000000E+000	5,9723284E-002	-1,8783405E+001	1,6105119E+002	1,5247401E+002	5,1857117E+001	-1,4667794E+001	3,0323300E+002	2,9335071E+002	7,6782906E+001	6,8829334E-003	1,2178209E-003	6,9898400E-003	1,0033694E+001	2,309140862243834E-006
7,0765615E+000	1,4162767E+002	2,7593689E+001	1,4429071E+002	-1,1024969E+001	3,574511137776426E+001	1,4995480E+000	3,2385711E-002	8,1505713E+002	2,9807863E+001	1,000000000000000E+000	40	5,3044096E-002	3,6761962E-004	0	3,219536260407977E-004	0,0000000E+000	6,0502630E-002	-2,0134804E+001	1,6457944E+002	1,5452122E+002	5,6653191E+001	-1,5879714E+001	3,0789886E+002	2,9614890E+002	8,4246880E+001	6,8025445E-003	1,3253575E-003	6,9304532E-003	1,1024969E+001	6,100039148056473E-006
6,3105822E+000	1,4259378E+002	3,0205877E+001	1,4575795E+002	-1,1960257E+001	3,610532262155903E+001	1,4995456E+000	3,3219613E-002	8,3494763E+002	3,5857304E+001	1,000000000000000E+000	40	5,3041223E-002	3,6389937E-004	0	3,253714517457136E-004	0,0000000E+000	6,1261773E-002	-2,1287611E+001	1,6834811E+002	1,5686168E+002	6,1118744E+001	-1,6960079E+001	3,1307147E+002	2,9945544E+002	9,1324623E+001	6,7117545E-003	1,4217622E-003	6,8606893E-003	1,1960257E+001	3,417825704915816E-006
5,6245475E+000	1,4336177E+002	3,3161556E+001	1,4714716E+002	-1,3024237E+001	3,650564256061625E+001	1,4995390E+000	3,3100341E-002	8,5329193E+002	4,3337486E+001	1,000000000000000E+000	40	5,3046077E-002	3,6049681E-004	0	3,253361560562593E-004	0,0000000E+000	6,2015928E-002	-2,2645182E+001	1,7202907E+002	1,5876682E+002	6,6235184E+001	-1,8210596E+001	3,1805881E+002	3,0212860E+002	9,9396744E+001	6,6210921E-003	1,5315498E-003	6,7959181E-003	1,3024237E+001	-3,529568945426741E-008
5,0112233E+000	1,4478650E+002	3,6631920E+001	1,4934868E+002	-1,4198254E+001	3,695041831504204E+001	1,4995379E+000	3,3798259E-002	8,6699524E+002	5,2159485E+001	1,000000000000000E+000	40	5,3037230E-002	3,5512354E-004	0	3,298060782701133E-004	0,0000000E+000	6,2956490E-002	-2,3960789E+001	1,7728053E+002	1,6200313E+002	7,1995636E+001	-1,9497952E+001	3,2545325E+002	3,0678961E+002	1,0862756E+002	6,4912043E-003	1,6423167E-003	6,6957404E-003	1,4198254E+001	4,469922213854003E-006
4,4642835E+000	1,4562167E+002	4,0207668E+001	1,5107060E+002	-1,5435388E+001	3,744593761858414E+001	1,4995461E+000	3,4823582E-002	8,8666473E+002	6,2808342E+001	1,000000000000000E+000	40	5,3038459E-002	3,5108393E-004	0	3,385112239805377E-004	0,0000000E+000	6,3774683E-002	-2,5436821E+001	1,8165082E+002	1,6404149E+002	7,8021858E+001	-2,0896877E+001	3,3146567E+002	3,0966315E+002	1,1822952E+002	6,3806670E-003	1,7617692E-003	6,6194218E-003	1,5435388E+001	8,705145710424377E-006
3,9819033E+000	1,4739140E+002	4,4176010E+001	1,5386925E+002	-1,6684475E+001	3,799909268485499E+001	1,4995536E+000	3,5289519E-002	9,0477985E+002	7,4578255E+001	1,000000000000000E+000	40	5,3038131E-002	3,4469611E-004	0	3,449675036088576E-004	0,0000000E+000	6,4808242E-002	-2,6788029E+001	1,8801559E+002	1,6783777E+002	8,4736946E+001	-2,2242105E+001	3,4057010E+002	3,1522919E+002	1,2891296E+002	6,2254178E-003	1,8658763E-003	6,4990246E-003	1,6684475E+001	6,456279628319964E-006
3,5479143E+000	1,4870168E+002	4,8688511E+001	1,5646968E+002	-1,8129692E+001	3,861585410081898E+001	1,4995474E+000	3,5521872E-002	9,2134125E+002	8,9209915E+001	1,000000000000000E+000	40	5,3046342E-002	3,3901993E-004	0	3,472585812154705E-004	0,0000000E+000	6,5734938E-002	-2,8349194E+001	1,9389697E+002	1,7064290E+002	9,2070816E+001	-2,3786718E+001	3,4899017E+002	3,1934457E+002	1,4075932E+002	6,0737301E-003	1,9886855E-003	6,3910144E-003	1,8129692E+001	2,291077606612836E-006
3,1629577E+000	1,5086397E+002	5,2993179E+001	1,5990063E+002	-1,9354572E+001	3,930422312018345E+001	1,4995512E+000	3,6252879E-002	9,4952582E+002	1,0429089E+002	1,000000000000000E+000	40	5,3041499E-002	3,3171536E-004	0	3,504422608992350E-004	0,0000000E+000	6,6619799E-002	-2,9449686E+001	2,0083423E+002	1,7488399E+002	9,8741966E+001	-2,4976355E+001	3,5935397E+002	3,2574796E+002	1,5173514E+002	5,9004501E-003	2,0726195E-003	6,2538837E-003	1,9354572E+001	3,183679683764539E-006
2,8183610E+000	1,5319562E+002	5,8612923E+001	1,6402553E+002	-2,0936941E+001	4,007387515675509E+001	1,4995551E+000	3,7422650E-002	9,6345209E+002	1,2302518E+002	1,000000000000000E+000	40	5,3042151E-002	3,2337740E-004	0	3,594194943049321E-004	0,0000000E+000	6,7590952E-002	-3,0898832E+001	2,0901569E+002	1,7935121E+002	1,0733453E+002	-2,6520105E+001	3,7165298E+002	3,3254681E+002	1,6594745E+002	5,6940787E-003	2,1785649E-003	6,0966122E-003	2,0936941E+001	8,977233405697079E-006
2,5112481E+000	1,5515959E+002	6,4008118E+001	1,6784380E+002	-2,2417656E+001	4,093428389090695E+001	1,4995426E+000	3,8551942E-002	9,9013733E+002	1,4399751E+002	1,000000000000000E+000	40	5,3042378E-002	3,1602228E-004	0	3,734637293697047E-004	0,0000000E+000	6,8469323E-002	-3,2124519E+001	2,1665979E+002	1,8348798E+002	1,1521124E+002	-2,7888727E+001	3,8314719E+002	3,3864758E+002	1,7921936E+002	5,5076717E-003	2,2720844E-003	5,9579206E-003	2,2417656E+001	1,404423506477261E-005
2,2398233E+000	1,5832774E+002	6,9802956E+001	1,7303215E+002	-2,3791548E+001	4,189664137667569E+001	1,4995457E+000	3,9513800E-002	1,0179644E+003	1,6566341E+002	1,000000000000000E+000	40	5,3037871E-002	3,0652032E-004	0	3,878662515638474E-004	0,0000000E+000	6,9417886E-002	-3,3186024E+001	2,2647075E+002	1,8953288E+002	1,2396082E+002	-2,9118486E+001	3,9818515E+002	3,4786063E+002	1,9376378E+002	5,2881455E-003	2,3314182E-003	5,7792729E-003	2,3791548E+001	1,440252219414269E-005
1,9950197E+000	1,6163127E+002	7,6719208E+001	1,7891479E+002	-2,5391623E+001	4,297359052105458E+001	1,4995507E+000	4,0445250E-002	1,0398456E+003	1,9119853E+002	1,000000000000000E+000	40	5,3033184E-002	2,9641588E-004	0	3,988284306297905E-004	0,0000000E+000	7,0346579E-002	-3,4492336E+001	2,3732393E+002	1,9560284E+002	1,3439558E+002	-3,0581829E+001	4,1495264E+002	3,5723413E+002	2,1111479E+002	5,0493199E-003	2,3966886E-003	5,5892528E-003	2,5391623E+001	1,096217906594311E-005
1,7775893E+000	1,6510683E+002	8,3415924E+001	1,8498238E+002	-2,6803999E+001	4,417979193844076E+001	1,4995558E+000	4,1503292E-002	1,0733459E+003	2,1826140E+002	1,000000000000000E+000	40	5,3038575E-002	2,8672232E-004	0	4,070839482309287E-004	0,0000000E+000	7,0965618E-002	-3,5612827E+001	2,4750642E+002	2,0121539E+002	1,4412424E+002	-3,1846384E+001	4,3123831E+002	3,6632220E+002	2,2754016E+002	4,8250780E-003	2,4377450E-003	5,4059206E-003	2,6803999E+001	8,255517601138201E-006
1,5846864E+000	1,6996262E+002	9,0387245E+001	1,9250232E+002	-2,8004343E+001	4,552948018917232E+001	1,4995439E+000	4,2742103E-002	1,1111422E+003	2,4496950E+002	1,000000000000000E+000	40	5,3036399E-002	2,7551045E-004	0	4,174354577309027E-004	0,0000000E+000	7,1305029E-002	-3,6369709E+001	2,5881061E+002	2,0839622E+002	1,5347295E+002	-3,2802628E+001	4,5013687E+002	3,7835883E+002	2,4386020E+002	4,5865006E-003	2,4391317E-003	5,1947427E-003	2,8004343E+001	1,035150949997397E-005
1,4122353E+000	1,7539658E+002	9,8791283E+001	2,0130493E+002	-2,9390177E+001	4,704063970100469E+001	1,4995562E+000	4,4110570E-002	1,1407604E+003	2,7474063E+002	1,000000000000000E+000	40	5,3038161E-002	2,6347174E-004	0	4,348414650709569E-004	0,0000000E+000	7,1452871E-002	-3,7129330E+001	2,7119748E+002	2,1621898E+002	1,6369919E+002	-3,3832996E+001	4,7144882E+002	3,9161554E+002	2,6249048E+002	4,3282495E-003	2,4378656E-003	4,9675880E-003	2,9390177E+001	1,740600734005421E-005
1,2582541E+000	1,8064087E+002	1,0739776E+002	2,1015565E+002	-3,0733068E+001	4,873445815473679E+001	1,4995440E+000	4,5374092E-002	1,1777594E+003	3,0758478E+002	1,000000000000000E+000	40	5,3033002E-002	2,5235105E-004	0	4,606751539808821E-004	0,0000000E+000	7,1545511E-002	-3,7697624E+001	2,8351581E+002	2,2433157E+002	1,7336829E+002	-3,4733440E+001	4,9278012E+002	4,0497244E+002	2,8076605E+002	4,0900991E-003	2,4317170E-003	4,7583776E-003	3,0733068E+001	2,583368890992521E-005
1,1224822E+000	1,8710266E+002	1,1574812E+002	2,2001143E+002	-3,1742355E+001	5,062982701812871E+001	1,4995494E+000	4,6597380E-002	1,2249736E+003	3,3905029E+002	1,000000000000000E+000	40	5,3031050E-002	2,4103771E-004	0	4,921838724642617E-004	0,0000000E+000	7,1721606E-002	-3,7982956E+001	2,9755347E+002	2,3452982E+002	1,8312245E+002	-3,5330593E+001	5,1681482E+002	4,2163248E+002	2,9887057E+002	3,8653556E-003	2,3912415E-003	4,5452183E-003	3,1742355E+001	3,150871848337964E-005
1,0000616E+000	1,9508549E+002	1,2518606E+002	2,3179710E+002	-3,2688225E+001	5,275385642566835E+001	1,4995563E+000	4,7732502E-002	1,2712688E+003	3,7079453E+002	1,000000000000000E+000	40	5,3036671E-002	2,2880644E-004	0	5,255817193079678E-004	0,0000000E+000	7,1860529E-002	-3,8432274E+001	3,1406689E+002	2,4602223E+002	1,9522058E+002	-3,5993465E+001	5,4519397E+002	4,4110773E+002	3,2040665E+002	3,6308554E-003	2,3299141E-003	4,3141176E-003	3,2688225E+001	3,339784684370606E-005