File: doc/files/data_raw_demo/20240326_DCP2_JULE_Ni_W_130224_BCV_EIS_i_004_03_PEIS_C01.mpt
EC-Lab ASCII FILE
Nb header lines : 70

Potentio Electrochemical Impedance Spectroscopy

Run on channel : 1 (SN 14323)
User :
Electrode connection : CE to ground
Potential control : Ewe
Ewe ctrl range : min = -10,00 V, max = 10,00 V
Ewe,I filtering : 50 kHz
Safety Limits :
	Do not start on E overload
Channel : Floating
Acquisition started on : 03/26/2024 15:31:47.051
Technique started on : 03/26/2024 15:33:32.671
Loaded Setting File :  C:\Users\Operator\Documents\DCP2_rawdata\CV\2024-03-26\20240326_DCP2_JULE_Ni_W_130224_BCV_EIS_i_000.mps
Saved on :
	File : 20240326_DCP2_JULE_Ni_W_130224_BCV_EIS_i_004_03_PEIS_C01.mpr
	Directory : C:\Users\Operator\Documents\DCP2_rawdata\CV\2024-03-26\
	Host : 134.60.37.140
Device : VSP-300 (SN 0936)
Address : USB
EC-Lab for windows v11.41 (software)
Internet server v11.40 (firmware)
Command interpretor v11.41 (firmware)
Electrode material :
Initial state :
Electrolyte :
Comments :
Cable : standard
Electrode surface area : 0,001 cm²
Characteristic mass : 0,001 g
Equivalent Weight : 0,000 g/eq.
Density : 0,000 g/cm3
Volume (V) : 0,001 cm³
Record Ece
Text export
   Mode : Standard
   Time format : Elapsed
Cycle Definition : Charge/Discharge alternance
Mode                Single sine
E (V)               1,3000
vs.                 Ref
tE (h:m:s)          0:00:0,0000
record              0
dI                  0,000
unit dI             mA
dt (s)              0,000
fi                  100,000
unit fi             kHz
ff                  1,000
unit ff             Hz
Nd                  20
Points              per decade
spacing             Logarithmic
Va (mV)             50,0
pw                  0,10
Na                  2
corr                0
E range min (V)     -10,000
E range max (V)     10,000
I Range             Auto
Bandwidth           8
nc cycles           0
goto Ns'            0
nr cycles           0
inc. cycle          0

freq/Hz	Re(Z)/Ohm	-Im(Z)/Ohm	|Z|/Ohm	Phase(Z)/deg	time/s	<Ewe>/V	<I>/mA	Cs/µF	Cp/µF	cycle number	I Range	|Ewe|/V	|I|/A	Ns	(Q-Qo)/mA.h	<Ece>/V	|Ece|/V	Phase(Zce)/deg	|Zce|/Ohm	Re(Zce)/Ohm	-Im(Zce)/Ohm	Phase(Zwe-ce)/deg	|Zwe-ce|/Ohm	Re(Zwe-ce)/Ohm	-Im(Zwe-ce)/Ohm	Re(Y)/Ohm-1	Im(Y)/Ohm-1	|Y|/Ohm-1	Phase(Y)/deg	dq/mA.h
1,0000371E+005	1,2813235E+002	6,1714854E+000	1,2828090E+002	-2,7575157E+000	1,056203414966294E+002	1,2994691E+000	-2,1373032E-001	2,5787801E-001	5,9685623E-004	1,000000000000000E+000	39	4,9479168E-002	3,8570957E-004	0	-5,568611791630651E-005	1,2732947E+000	5,2799400E-002	-4,6377568E+000	1,3688901E+002	1,3644081E+002	1,1068266E+001	-3,7281578E+000	2,6513428E+002	2,6457318E+002	1,7239752E+001	7,7863666E-003	3,7502975E-004	7,7953930E-003	2,7575157E+000	-5,568611791630651E-005
8,9129305E+004	1,2809033E+002	5,4347596E+000	1,2820558E+002	-2,4295521E+000	1,059973571145383E+002	1,2995017E+000	-1,6692027E-001	3,2856348E-001	5,9042685E-004	1,000000000000000E+000	39	5,0556429E-002	3,9433877E-004	0	-7,403374067120118E-005	1,2865988E+000	5,4029010E-002	-4,0994434E+000	1,3701166E+002	1,3666112E+002	9,7946558E+000	-3,2922225E+000	2,6518912E+002	2,6475146E+002	1,5229416E+001	7,7929609E-003	3,3064844E-004	7,7999723E-003	2,4295521E+000	-1,834762275489468E-005
7,9433273E+004	1,2796178E+002	4,8102617E+000	1,2805215E+002	-2,1528146E+000	1,063743686524394E+002	1,2994782E+000	-1,3879450E-001	4,1653258E-001	5,8777700E-004	1,000000000000000E+000	39	5,0660398E-002	3,9562318E-004	0	-9,002329316459105E-005	1,3102685E+000	5,4140903E-002	-3,6586902E+000	1,3684967E+002	1,3657076E+002	8,7327614E+000	-2,9307594E+000	2,6487897E+002	2,6453253E+002	1,3543023E+001	7,8038061E-003	2,9335596E-004	7,8093181E-003	2,1528146E+000	-1,598955249338986E-005
7,0794984E+004	1,2801530E+002	4,2963614E+000	1,2808739E+002	-1,9221998E+000	1,067513412569824E+002	1,2994723E+000	-1,1953826E-001	5,2325916E-001	5,8871583E-004	1,000000000000000E+000	39	5,0669808E-002	3,9558782E-004	0	-1,034649366704560E-004	1,3272212E+000	5,4199155E-002	-3,2527554E+000	1,3700916E+002	1,3678842E+002	7,7740088E+000	-2,6098685E+000	2,6507867E+002	2,6480371E+002	1,2070370E+001	7,8027770E-003	2,6187141E-004	7,8071700E-003	1,9221998E+000	-1,344164350586491E-005
6,3093828E+004	1,2793525E+002	3,7642450E+000	1,2799062E+002	-1,6853303E+000	1,071283328482241E+002	1,2994635E+000	-1,0527720E-001	6,7012429E-001	5,7963538E-004	1,000000000000000E+000	39	5,0663110E-002	3,9583456E-004	0	-1,140709093950314E-004	1,3459675E+000	5,4203648E-002	-2,8911080E+000	1,3693510E+002	1,3676082E+002	6,9067254E+000	-2,3085749E+000	2,6491107E+002	2,6469608E+002	1,0670971E+001	7,8096930E-003	2,2978497E-004	7,8130728E-003	1,6853303E+000	-1,060597272457542E-005
5,6237012E+004	1,2796921E+002	3,3082983E+000	1,2801196E+002	-1,4808978E+000	1,075053392661212E+002	1,2994655E+000	-9,4197370E-002	8,5544723E-001	5,7134900E-004	1,000000000000000E+000	39	5,0685205E-002	3,9594117E-004	0	-1,235914602399203E-004	1,3485475E+000	5,4258306E-002	-2,5741062E+000	1,3703629E+002	1,3689801E+002	6,1545076E+000	-2,0461133E+000	2,6503619E+002	2,6486722E+002	9,4628057E+000	7,8091607E-003	2,0188476E-004	7,8117698E-003	1,4808978E+000	-9,520550844888925E-006
5,0122477E+004	1,2788870E+002	2,8918765E+000	1,2792139E+002	-1,2953770E+000	1,078823559774028E+002	1,2994599E+000	-8,5171968E-002	1,0980140E+000	5,6115258E-004	1,000000000000000E+000	39	5,0677698E-002	3,9616280E-004	0	-1,331633745145033E-004	0,0000000E+000	5,4276101E-002	-2,3096883E+000	1,3700453E+002	1,3689323E+002	5,5213857E+000	-1,8199215E+000	2,6491556E+002	2,6478192E+002	8,4132624E+000	7,8153033E-003	1,7672313E-004	7,8173010E-003	1,2953770E+000	-9,571914274583037E-006
4,4666715E+004	1,2790127E+002	2,5659099E+000	1,2792700E+002	-1,1492934E+000	1,082593493552704E+002	1,2994722E+000	-7,7475451E-002	1,3886561E+000	5,5866706E-004	1,000000000000000E+000	39	5,0671652E-002	3,9609818E-004	0	-1,421411741414405E-004	0,0000000E+000	5,4282047E-002	-2,0607131E+000	1,3704190E+002	1,3695328E+002	4,9278178E+000	-1,6206799E+000	2,6496054E+002	2,6485455E+002	7,4937277E+000	7,8153852E-003	1,5678949E-004	7,8169582E-003	1,1492934E+000	-8,977799626937139E-006
3,9814063E+004	1,2785321E+002	2,2424190E+000	1,2787287E+002	-1,0048083E+000	1,086363643065270E+002	1,2994651E+000	-7,1029112E-002	1,7826532E+000	5,4820575E-004	1,000000000000000E+000	39	5,0664000E-002	3,9620601E-004	0	-1,492697041221691E-004	0,0000000E+000	5,4267164E-002	-1,8261063E+000	1,3696704E+002	1,3689748E+002	4,3646154E+000	-1,4295588E+000	2,6483310E+002	2,6475067E+002	6,6070347E+000	7,8190649E-003	1,3713866E-004	7,8202672E-003	1,0048083E+000	-7,128529980728591E-006
3,5481000E+004	1,2778676E+002	1,9759799E+000	1,2780203E+002	-8,8590002E-001	1,090133284044277E+002	1,2994782E+000	-6,5805376E-002	2,2700832E+000	5,4266432E-004	1,000000000000000E+000	39	5,0638169E-002	3,9622351E-004	0	-1,556049721738382E-004	0,0000000E+000	5,4311328E-002	-1,6251457E+000	1,3707245E+002	1,3701732E+002	3,8874211E+000	-1,2684594E+000	2,6486899E+002	2,6480408E+002	5,8634009E+000	7,8236666E-003	1,2097817E-004	7,8246016E-003	8,8590002E-001	-6,335268051669104E-006
3,1621143E+004	1,2774937E+002	1,7631804E+000	1,2776154E+002	-7,9073876E-001	1,093903728489822E+002	1,2994578E+000	-6,1010793E-002	2,8546038E+000	5,4367463E-004	1,000000000000000E+000	39	5,0641950E-002	3,9637869E-004	0	-1,619200664958318E-004	0,0000000E+000	5,4329023E-002	-1,4372816E+000	1,3706343E+002	1,3702031E+002	3,4379163E+000	-1,1253651E+000	2,6482077E+002	2,6476968E+002	5,2010965E+000	7,8263367E-003	1,0801809E-004	7,8270817E-003	7,9073876E-001	-6,315094321993666E-006
2,8188094E+004	1,2773302E+002	1,5581872E+000	1,2774253E+002	-6,9890404E-001	1,097673475335760E+002	1,2994647E+000	-5,6793772E-002	3,6235542E+000	5,3914182E-004	1,000000000000000E+000	39	5,0623126E-002	3,9629030E-004	0	-1,686312241509570E-004	0,0000000E+000	5,4333009E-002	-1,2927161E+000	1,3710406E+002	1,3706917E+002	3,0931005E+000	-1,0063050E+000	2,6484302E+002	2,6480219E+002	4,6512880E+000	7,8276647E-003	9,5487972E-005	7,8282468E-003	6,9890404E-001	-6,711157655125131E-006
2,5116906E+004	1,2769180E+002	1,3856256E+000	1,2769931E+002	-6,2171090E-001	1,101443433381792E+002	1,2994578E+000	-5,3078994E-002	4,5730729E+000	5,3842197E-004	1,000000000000000E+000	39	5,0613970E-002	3,9635273E-004	0	-1,746605263011224E-004	0,0000000E+000	5,4298885E-002	-1,1695575E+000	1,3699637E+002	1,3696783E+002	2,7962615E+000	-9,0525532E-001	2,6469269E+002	2,6465964E+002	4,1818871E+000	7,8304345E-003	8,4970612E-005	7,8308955E-003	6,2171090E-001	-6,029302150165462E-006
2,2389031E+004	1,2762383E+002	1,2686689E+000	1,2763013E+002	-5,6954080E-001	1,105213693293917E+002	1,2994653E+000	-4,9753472E-002	5,6032052E+000	5,5363902E-004	1,000000000000000E+000	39	5,0579369E-002	3,9629647E-004	0	-1,802466238895625E-004	0,0000000E+000	5,4260977E-002	-1,0229130E+000	1,3692017E+002	1,3689835E+002	2,4443331E+000	-8,0418736E-001	2,6454822E+002	2,6452216E+002	3,7130020E+000	7,8347530E-003	7,7882854E-005	7,8351405E-003	5,6954080E-001	-5,586097588440093E-006
1,9948781E+004	1,2760365E+002	1,1158488E+000	1,2760853E+002	-5,0101852E-001	1,108983256939391E+002	1,2994642E+000	-4,6605811E-002	7,1498742E+000	5,4670079E-004	1,000000000000000E+000	39	5,0553605E-002	3,9616166E-004	0	-1,857760956010995E-004	0,0000000E+000	5,4305792E-002	-9,1288799E-001	1,3707988E+002	1,3706248E+002	2,1839876E+000	-7,1432221E-001	2,6468671E+002	2,6466614E+002	3,2998364E+000	7,8361668E-003	6,8524503E-005	7,8364667E-003	5,0101852E-001	-5,529471711536931E-006
1,7786891E+004	1,2748969E+002	1,0192155E+000	1,2749377E+002	-4,5804098E-001	1,112753627252241E+002	1,2994722E+000	-4,3971941E-002	8,7791824E+000	5,6105858E-004	1,000000000000000E+000	39	5,0516047E-002	3,9622365E-004	0	-1,912423458881903E-004	0,0000000E+000	5,4264288E-002	-8,3560097E-001	1,3695369E+002	1,3693913E+002	1,9972602E+000	-6,5357405E-001	2,6444604E+002	2,6442883E+002	3,0164757E+000	7,8432700E-003	6,2702973E-005	7,8435205E-003	4,5804098E-001	-5,466250287090808E-006
1,5847683E+004	1,2751515E+002	9,6283078E-001	1,2751878E+002	-4,3261600E-001	1,115303403906582E+002	1,2994567E+000	-4,2352624E-002	1,0430483E+001	5,9464260E-004	1,000000000000000E+000	39	5,4735154E-002	4,2923208E-004	0	-1,945754773090658E-004	0,0000000E+000	5,8789324E-002	-7,5033927E-001	1,3696396E+002	1,3695221E+002	1,7936138E+000	-5,9715092E-001	2,6448172E+002	2,6446735E+002	2,7564445E+000	7,8417584E-003	5,9210899E-005	7,8419819E-003	4,3261600E-001	-3,333131420875542E-006
1,4121883E+004	1,2746139E+002	8,8921189E-001	1,2746449E+002	-3,9970741E-001	1,119073484618857E+002	1,2994651E+000	-3,9941724E-002	1,2674250E+001	6,1681418E-004	1,000000000000000E+000	39	5,0877288E-002	3,9914870E-004	0	-1,997677011899941E-004	0,0000000E+000	5,4656204E-002	-6,8182147E-001	1,3693193E+002	1,3692224E+002	1,6294554E+000	-5,4581529E-001	2,6439563E+002	2,6438364E+002	2,5186672E+000	7,8451307E-003	5,4730172E-005	7,8453217E-003	3,9970741E-001	-5,192223880928309E-006
1,2590930E+004	1,2747994E+002	8,7879056E-001	1,2748297E+002	-3,9496562E-001	1,121623366606946E+002	1,2994515E+000	-3,8612485E-002	1,4383911E+001	6,8350765E-004	1,000000000000000E+000	39	5,4275006E-002	4,2574317E-004	0	-2,022147178323713E-004	0,0000000E+000	5,8317900E-002	-6,2523121E-001	1,3697906E+002	1,3697092E+002	1,4947329E+000	-5,1423246E-001	2,6446152E+002	2,6445087E+002	2,3735235E+000	7,8439983E-003	5,4073069E-005	7,8441845E-003	3,9496562E-001	-2,447016642377186E-006
1,1217713E+004	1,2744716E+002	8,6508256E-001	1,2745010E+002	-3,8890487E-001	1,125393449452531E+002	1,2994471E+000	-3,6675490E-002	1,6400543E+001	7,5560191E-004	1,000000000000000E+000	39	5,0763216E-002	3,9829875E-004	0	-2,058778299630002E-004	0,0000000E+000	5,4510482E-002	-5,7751805E-001	1,3685828E+002	1,3685132E+002	1,3794521E+000	-4,8656839E-001	2,6430798E+002	2,6429846E+002	2,2445347E+000	7,8460276E-003	5,3257067E-005	7,8462083E-003	3,8890487E-001	-3,663112130628888E-006
1,0002226E+004	1,2744637E+002	8,3115393E-001	1,2744907E+002	-3,7365472E-001	1,127943443706899E+002	1,2994524E+000	-3,5577051E-002	1,9144411E+001	8,1420090E-004	1,000000000000000E+000	39	5,3143628E-002	4,1697931E-004	0	-2,085708563218876E-004	0,0000000E+000	5,7087652E-002	-5,1633960E-001	1,3690764E+002	1,3690208E+002	1,2337712E+000	-4,4754979E-001	2,6435651E+002	2,6434845E+002	2,0649252E+000	7,8461049E-003	5,1169140E-005	7,8462716E-003	3,7365472E-001	-2,693026358887440E-006
8,9166387E+003	1,2743942E+002	8,4950924E-001	1,2744225E+002	-3,8192713E-001	1,131713461752806E+002	1,2995068E+000	-3,3459965E-002	2,1011200E+001	9,3359855E-004	1,000000000000000E+000	39	5,1397026E-002	4,0329658E-004	0	-2,124966440530035E-004	0,0000000E+000	5,5236142E-002	-4,8126084E-001	1,3696159E+002	1,3695676E+002	1,1504072E+000	-4,3338215E-001	2,6440375E+002	2,6439618E+002	1,9999164E+000	7,8465166E-003	5,2304757E-005	7,8466907E-003	3,8192713E-001	-3,925787731115824E-006
7,9424009E+003	1,2743003E+002	8,3630055E-001	1,2743278E+002	-3,7601656E-001	1,134263710940431E+002	1,2995105E+000	-3,2373458E-002	2,3961054E+001	1,0319732E-003	1,000000000000000E+000	39	5,4269597E-002	4,2586843E-004	0	-2,145569020282063E-004	0,0000000E+000	5,8337029E-002	-4,6736163E-001	1,3698369E+002	1,3697913E+002	1,1173635E+000	-4,2333886E-001	2,6441638E+002	2,6440915E+002	1,9536641E+000	7,8471061E-003	5,1499152E-005	7,8472747E-003	3,7601656E-001	-2,060257975202876E-006
7,0794971E+003	1,2746146E+002	8,5020632E-001	1,2746429E+002	-3,8217443E-001	1,138033724719717E+002	1,2995431E+000	-3,0926771E-002	2,6441946E+001	1,1764269E-003	1,000000000000000E+000	39	5,0721824E-002	3,9792966E-004	0	-2,178192653108757E-004	0,0000000E+000	5,4516837E-002	-4,2403722E-001	1,3700119E+002	1,3699744E+002	1,0139154E+000	-4,0386063E-001	2,6446545E+002	2,6445889E+002	1,8641217E+000	7,8451606E-003	5,2329582E-005	7,8453347E-003	3,8217443E-001	-3,262363282669352E-006
6,3093828E+003	1,2745025E+002	8,7586838E-001	1,2745325E+002	-3,9374402E-001	1,140583252306969E+002	1,2995216E+000	-3,0046454E-002	2,8800129E+001	1,3600981E-003	1,000000000000000E+000	39	5,2870631E-002	4,1482371E-004	0	-2,197194446727068E-004	0,0000000E+000	5,6831822E-002	-4,1376728E-001	1,3700235E+002	1,3699878E+002	9,8936778E-001	-4,0411714E-001	2,6445563E+002	2,6444904E+002	1,8652362E+000	7,8458283E-003	5,3918397E-005	7,8460136E-003	3,9374402E-001	-1,900179361831152E-006
5,6227744E+003	1,2749912E+002	9,2271292E-001	1,2750246E+002	-4,1464311E-001	1,143133325495000E+002	1,2995437E+000	-2,9097904E-002	3,0676294E+001	1,6065673E-003	1,000000000000000E+000	39	5,4783989E-002	4,2967004E-004	0	-2,219165628309432E-004	0,0000000E+000	5,8866460E-002	-3,9168009E-001	1,3700388E+002	1,3700067E+002	9,3656588E-001	-4,0274918E-001	2,6450632E+002	2,6449979E+002	1,8592788E+000	7,8427801E-003	5,6758312E-005	7,8429859E-003	4,1464311E-001	-2,197118158236375E-006
5,0103887E+003	1,2758302E+002	9,5822114E-001	1,2758662E+002	-4,3031585E-001	1,146903688607563E+002	1,2995245E+000	-2,7816765E-002	3,3149956E+001	1,8698390E-003	1,000000000000000E+000	39	5,0654799E-002	3,9702281E-004	0	-2,255421854539707E-004	0,0000000E+000	5,4417495E-002	-3,7858358E-001	1,3706390E+002	1,3706091E+002	9,0564728E-001	-4,0352347E-001	2,6465048E+002	2,6464392E+002	1,8638685E+000	7,8375917E-003	5,8864774E-005	7,8378124E-003	4,3031585E-001	-3,625622623027483E-006
4,4655278E+003	1,2754626E+002	1,0260065E+000	1,2755039E+002	-4,6088827E-001	1,149608860469598E+002	1,2995391E+000	-2,7157180E-002	3,4737396E+001	2,2476767E-003	1,000000000000000E+000	39	5,1935926E-002	4,0717967E-004	0	-2,274431527654938E-004	0,0000000E+000	5,5798396E-002	-3,6144644E-001	1,3703630E+002	1,3703357E+002	8,6447823E-001	-4,0938476E-001	2,6458658E+002	2,6457983E+002	1,8904847E+000	7,8397850E-003	6,3064726E-005	7,8400383E-003	4,6088827E-001	-1,900967311523137E-006
3,9796606E+003	1,2756309E+002	1,0594444E+000	1,2756749E+002	-4,7584531E-001	1,152599775011477E+002	1,2995262E+000	-2,6207138E-002	3,7748173E+001	2,6035879E-003	1,000000000000000E+000	39	5,3061347E-002	4,1594726E-004	0	-2,296226237118406E-004	0,0000000E+000	5,6974903E-002	-3,7328896E-001	1,3697627E+002	1,3697336E+002	8,9241076E-001	-4,2274341E-001	2,6454364E+002	2,6453644E+002	1,9518552E+000	7,8387177E-003	6,5102569E-005	7,8389877E-003	4,7584531E-001	-2,179470946346747E-006
3,5480037E+003	1,2761131E+002	1,1418591E+000	1,2761642E+002	-5,1266581E-001	1,155917500502546E+002	1,2995189E+000	-2,5286181E-002	3,9284714E+001	3,1451075E-003	1,000000000000000E+000	39	5,3984106E-002	4,2301850E-004	0	-2,322361081117932E-004	0,0000000E+000	5,7990037E-002	-3,6415190E-001	1,3708629E+002	1,3708353E+002	8,7126660E-001	-4,3575230E-001	2,6470248E+002	2,6469482E+002	2,0131257E+000	7,8356685E-003	7,0113136E-005	7,8359824E-003	5,1266581E-001	-2,613484399952655E-006
3,1630769E+003	1,2765075E+002	1,2552912E+000	1,2765692E+002	-5,6341678E-001	1,159594948144149E+002	1,2995170E+000	-2,4400270E-002	4,0083523E+001	3,8758426E-003	1,000000000000000E+000	39	5,4773830E-002	4,2907058E-004	0	-2,351056789498737E-004	0,0000000E+000	5,8833618E-002	-3,8339108E-001	1,3711874E+002	1,3711568E+002	9,1751456E-001	-4,7018731E-001	2,6477533E+002	2,6476642E+002	2,1728058E+000	7,8331167E-003	7,7029268E-005	7,8334957E-003	5,6341678E-001	-2,869570838080515E-006
2,8175339E+003	1,2766634E+002	1,3881385E+000	1,2767388E+002	-6,2296253E-001	1,165654719365266E+002	1,2995307E+000	-2,2988630E-002	4,0692856E+001	4,8103831E-003	1,000000000000000E+000	39	5,0557852E-002	3,9599213E-004	0	-2,392872462802528E-004	0,0000000E+000	5,4317620E-002	-3,9694139E-001	1,3716843E+002	1,3716513E+002	9,5028621E-001	-5,0590050E-001	2,6484180E+002	2,6483148E+002	2,3384247E+000	7,8319926E-003	8,5158630E-005	7,8324554E-003	6,2296253E-001	-4,181567330379039E-006
2,5124104E+003	1,2770112E+002	1,5041190E+000	1,2770998E+002	-6,7482328E-001	1,170114778777133E+002	1,2995541E+000	-2,2101976E-002	4,2116020E+001	5,8420072E-003	1,000000000000000E+000	39	5,1043920E-002	3,9968625E-004	0	-2,420372415592331E-004	0,0000000E+000	5,4832406E-002	-3,9972281E-001	1,3718863E+002	1,3718529E+002	9,5708585E-001	-5,3235120E-001	2,6489786E+002	2,6488641E+002	2,4612050E+000	7,8296987E-003	9,2221577E-005	7,8302417E-003	6,7482328E-001	-2,749995278980349E-006
2,2492781E+003	1,2776064E+002	1,6008939E+000	1,2777067E+002	-7,1790236E-001	1,174577778188977E+002	1,2995527E+000	-2,1073634E-002	4,4199203E+001	6,9386852E-003	1,000000000000000E+000	39	5,1440187E-002	4,0259777E-004	0	-2,445419498545299E-004	0,0000000E+000	5,5200212E-002	-4,3221009E-001	1,3711008E+002	1,3710617E+002	1,0342786E+000	-5,7001960E-001	2,6487994E+002	2,6486682E+002	2,6351724E+000	7,8259073E-003	9,8061879E-005	7,8265220E-003	7,1790236E-001	-2,504708295296724E-006
1,9956381E+003	1,2784738E+002	1,7959275E+000	1,2785999E+002	-8,0480570E-001	1,179036264800816E+002	1,2995392E+000	-2,0276835E-002	4,4406807E+001	8,7610828E-003	1,000000000000000E+000	39	5,1760215E-002	4,0481947E-004	0	-2,473199561849922E-004	0,0000000E+000	5,5551700E-002	-4,6038479E-001	1,3722586E+002	1,3722144E+002	1,1026295E+000	-6,2651080E-001	2,6508466E+002	2,6506882E+002	2,8985572E+000	7,8202840E-003	1,0985491E-004	7,8210551E-003	8,0480570E-001	-2,778006330462351E-006
1,7782897E+003	1,2788450E+002	1,9532542E+000	1,2789941E+002	-8,7504363E-001	1,183499085278891E+002	1,2995417E+000	-1,9431571E-002	4,5820396E+001	1,0686594E-002	1,000000000000000E+000	39	5,2016553E-002	4,0669891E-004	0	-2,498384216640989E-004	0,0000000E+000	5,5818520E-002	-4,2954805E-001	1,3724777E+002	1,3724391E+002	1,0289408E+000	-6,4444232E-001	2,6514520E+002	2,6512842E+002	2,9821949E+000	7,8177322E-003	1,1940476E-004	7,8186439E-003	8,7504363E-001	-2,518465479106667E-006
1,5844927E+003	1,2792672E+002	2,1371987E+000	1,2794457E+002	-9,5711881E-001	1,187957339891000E+002	1,2995512E+000	-1,8642602E-002	4,6998608E+001	1,3113876E-002	1,000000000000000E+000	39	5,2223224E-002	4,0817069E-004	0	-2,518889649840502E-004	0,0000000E+000	5,5990383E-002	-4,7419864E-001	1,3717395E+002	1,3716925E+002	1,1352836E+000	-7,0725292E-001	2,6511618E+002	2,6509598E+002	3,2724824E+000	7,8147938E-003	1,3055730E-004	7,8158844E-003	9,5711881E-001	-2,050543319951335E-006
1,4127418E+003	1,2800687E+002	2,3765130E+000	1,2802893E+002	-1,0636033E+000	1,192419967569585E+002	1,2995464E+000	-1,8032607E-002	4,7404232E+001	1,6333576E-002	1,000000000000000E+000	39	5,2391987E-002	4,0921991E-004	0	-2,543860186255115E-004	0,0000000E+000	5,6139849E-002	-5,2959114E-001	1,3718748E+002	1,3718163E+002	1,2680209E+000	-7,8737682E-001	2,6521353E+002	2,6518848E+002	3,6445339E+000	7,8093889E-003	1,4498530E-004	7,8107347E-003	1,0636033E+000	-2,497053641461295E-006
1,2587905E+003	1,2819617E+002	2,6037297E+000	1,2822261E+002	-1,1635466E+000	1,196878488848160E+002	1,2995265E+000	-1,7301433E-002	4,8559113E+001	2,0023193E-002	1,000000000000000E+000	39	5,2544825E-002	4,0979375E-004	0	-2,568221202547817E-004	0,0000000E+000	5,6237195E-002	-5,3533691E-001	1,3723293E+002	1,3722693E+002	1,2822024E+000	-8,3878005E-001	2,6545154E+002	2,6542310E+002	3,8859320E+000	7,7973288E-003	1,5836772E-004	7,7989367E-003	1,1635466E+000	-2,436101629270187E-006
1,1217966E+003	1,2822519E+002	2,8795867E+000	1,2825752E+002	-1,2864901E+000	1,201323833592178E+002	1,2995428E+000	-1,6783161E-002	4,9269238E+001	2,4835361E-002	1,000000000000000E+000	39	5,2646343E-002	4,1047370E-004	0	-2,590754177748701E-004	0,0000000E+000	5,6311738E-002	-5,9182471E-001	1,3718719E+002	1,3717987E+002	1,4170212E+000	-9,2747289E-001	2,6543985E+002	2,6540506E+002	4,2966080E+000	7,7948482E-003	1,7505095E-004	7,7968137E-003	1,2864901E+000	-2,253297520088393E-006
9,9968164E+002	1,2837965E+002	3,2440045E+000	1,2842064E+002	-1,4474895E+000	1,205777863404073E+002	1,2995262E+000	-1,6080696E-002	4,9076881E+001	3,1316284E-002	1,000000000000000E+000	39	5,2731097E-002	4,1061232E-004	0	-2,613975114209631E-004	0,0000000E+000	5,6290410E-002	-6,2467217E-001	1,3708894E+002	1,3708080E+002	1,4945945E+000	-1,0226490E+000	2,6550275E+002	2,6546045E+002	4,7385988E+000	7,7844257E-003	1,9670336E-004	7,7869105E-003	1,4474895E+000	-2,322093646093019E-006
8,9142474E+002	1,2861472E+002	3,5340660E+000	1,2866325E+002	-1,5739733E+000	1,210223524681933E+002	1,2995404E+000	-1,5707465E-002	5,0519703E+001	3,8115449E-002	1,000000000000000E+000	39	5,2822795E-002	4,1055074E-004	0	-2,634621368082590E-004	0,0000000E+000	5,6347307E-002	-7,0420820E-001	1,3724809E+002	1,3723773E+002	1,6868397E+000	-1,1250504E+000	2,6590372E+002	2,6585245E+002	5,2209058E+000	7,7692945E-003	2,1348412E-004	7,7722268E-003	1,5739733E+000	-2,064625387295850E-006
7,9423932E+002	1,2874045E+002	3,8323202E+000	1,2879747E+002	-1,7050660E+000	1,214678832093487E+002	1,2995393E+000	-1,5148925E-002	5,2288589E+001	4,6293058E-002	1,000000000000000E+000	39	5,2850354E-002	4,1033691E-004	0	-2,650851193389713E-004	0,0000000E+000	5,6250878E-002	-7,4736148E-001	1,3708461E+002	1,3707295E+002	1,7880698E+000	-1,2112882E+000	2,6587283E+002	2,6581342E+002	5,6203899E+000	7,7606901E-003	2,3101868E-004	7,7641276E-003	1,7050660E+000	-1,622982530712341E-006
7,0796161E+002	1,2901254E+002	4,2606325E+000	1,2908287E+002	-1,8915029E+000	1,219143024305522E+002	1,2995534E+000	-1,4695531E-002	5,2763836E+001	5,7484038E-002	1,000000000000000E+000	39	5,2906454E-002	4,0986424E-004	0	-2,666369779028464E-004	0,0000000E+000	5,6210935E-002	-8,8234353E-001	1,3714525E+002	1,3712898E+002	2,1119258E+000	-1,3716421E+000	2,6621783E+002	2,6614154E+002	6,3725586E+000	7,7427402E-003	2,5570361E-004	7,7469614E-003	1,8915029E+000	-1,551858563875132E-006
6,3100977E+002	1,2928358E+002	4,6458397E+000	1,2936703E+002	-2,0580535E+000	1,223593410383619E+002	1,2995200E+000	-1,4124312E-002	5,4289997E+001	7,0016600E-002	1,000000000000000E+000	39	5,2949093E-002	4,0929357E-004	0	-2,683456438092366E-004	0,0000000E+000	5,6082759E-002	-9,5299965E-001	1,3702332E+002	1,3700436E+002	2,2790012E+000	-1,4896458E+000	2,6637799E+002	2,6628796E+002	6,9248409E+000	7,7249580E-003	2,7759842E-004	7,7299443E-003	2,0580535E+000	-1,708665906390201E-006
5,6233929E+002	1,2951044E+002	5,0860438E+000	1,2961026E+002	-2,2489245E+000	1,228028854060976E+002	1,2995353E+000	-1,3795826E-002	5,5646976E+001	8,5688598E-002	1,000000000000000E+000	39	5,2953817E-002	4,0856190E-004	0	-2,704644063068457E-004	0,0000000E+000	5,5954464E-002	-1,0779411E+000	1,3695468E+002	1,3693045E+002	2,5764616E+000	-1,6473006E+000	2,6655106E+002	2,6644089E+002	7,6625051E+000	7,7094957E-003	3,0276197E-004	7,7154385E-003	2,2489245E+000	-2,118762497609061E-006
5,0112231E+002	1,2991545E+002	5,4978380E+000	1,3003172E+002	-2,4232304E+000	1,232472677204933E+002	1,2995349E+000	-1,3222743E-002	5,7767616E+001	1,0326894E-001	1,000000000000000E+000	39	5,2987922E-002	4,0749996E-004	0	-2,717637033419289E-004	0,0000000E+000	5,5786237E-002	-1,2303480E+000	1,3689876E+002	1,3686720E+002	2,9394865E+000	-1,8114446E+000	2,6691605E+002	2,6678265E+002	8,4373245E+000	7,6835542E-003	3,2515713E-004	7,6904311E-003	2,4232304E+000	-1,299297035083232E-006
4,4657214E+002	1,3031395E+002	5,9009352E+000	1,3044748E+002	-2,5927224E+000	1,236909576615726E+002	1,2995263E+000	-1,2989334E-002	6,0395931E+001	1,2358847E-001	1,000000000000000E+000	39	5,3012434E-002	4,0638910E-004	0	-2,737096947100318E-004	0,0000000E+000	5,5581212E-002	-1,4100833E+000	1,3676846E+002	1,3672705E+002	3,3656137E+000	-1,9874146E+000	2,6720175E+002	2,6704102E+002	9,2665491E+000	7,6580732E-003	3,4677636E-004	7,6659205E-003	2,5927224E+000	-1,945991368102894E-006
3,9808899E+002	1,3068961E+002	6,4459743E+000	1,3084848E+002	-2,8236985E+000	1,241386119762174E+002	1,2995373E+000	-1,2587767E-002	6,2022808E+001	1,5051895E-001	1,000000000000000E+000	39	5,3005103E-002	4,0508763E-004	0	-2,753451148176715E-004	0,0000000E+000	5,5292957E-002	-1,6257837E+000	1,3649629E+002	1,3644135E+002	3,8726006E+000	-2,2120874E+000	2,6733017E+002	2,6713095E+002	1,0318575E+001	7,6331482E-003	3,7648805E-004	7,6424275E-003	2,8236985E+000	-1,635420107639642E-006
3,5488681E+002	1,3116315E+002	6,8523912E+000	1,3134203E+002	-2,9905999E+000	1,245847969574097E+002	1,2995259E+000	-1,2387170E-002	6,5446754E+001	1,7814146E-001	1,000000000000000E+000	39	5,3018797E-002	4,0366969E-004	0	-2,766548775220548E-004	0,0000000E+000	5,5125892E-002	-1,8775848E+000	1,3656187E+002	1,3648856E+002	4,4743366E+000	-2,4232490E+000	2,6789127E+002	2,6765170E+002	1,1326728E+001	7,6033403E-003	3,9722334E-004	7,6137092E-003	2,9905999E+000	-1,309762704383385E-006
3,1631589E+002	1,3166631E+002	7,3809819E+000	1,3187303E+002	-3,2085423E+000	1,250288126851665E+002	1,2995216E+000	-1,1921842E-002	6,8168694E+001	2,1355085E-001	1,000000000000000E+000	39	5,3018965E-002	4,0204555E-004	0	-2,779155143562610E-004	0,0000000E+000	5,4856803E-002	-2,1776483E+000	1,3644424E+002	1,3634570E+002	5,1846061E+000	-2,6843135E+000	2,6830643E+002	2,6801202E+002	1,2565588E+001	7,5711645E-003	4,2442614E-004	7,5830515E-003	3,2085423E+000	-1,260636834206190E-006
2,8189420E+002	1,3222237E+002	7,8194647E+000	1,3245338E+002	-3,3844583E+000	1,254713511328155E+002	1,2995287E+000	-1,1699619E-002	7,2203285E+001	2,5164303E-001	1,000000000000000E+000	39	5,3026985E-002	4,0034449E-004	0	-2,796882185261865E-004	0,0000000E+000	5,4646682E-002	-2,4770422E+000	1,3649915E+002	1,3637160E+002	5,8993669E+000	-2,9239254E+000	2,6894409E+002	2,6859396E+002	1,3718832E+001	7,5366581E-003	4,4570849E-004	7,5498261E-003	3,3844583E+000	-1,772704169925423E-006
2,5120601E+002	1,3273274E+002	8,3277864E+000	1,3299373E+002	-3,5900896E+000	1,259147468072479E+002	1,2995312E+000	-1,1270088E-002	7,6078255E+001	2,9830283E-001	1,000000000000000E+000	39	5,3030193E-002	3,9874204E-004	0	-2,808065325517350E-004	0,0000000E+000	5,4356471E-002	-2,9137831E+000	1,3631989E+002	1,3614365E+002	6,9295745E+000	-3,2477596E+000	2,6930893E+002	2,6887640E+002	1,5257360E+001	7,5043957E-003	4,7083342E-004	7,5191515E-003	3,5900896E+000	-1,118314025548497E-006
2,2392496E+002	1,3334489E+002	8,8080263E+000	1,3363548E+002	-3,7791522E+000	1,263626591751818E+002	1,2995323E+000	-1,0896483E-002	8,0693581E+001	3,5055217E-001	1,000000000000000E+000	39	5,3024977E-002	3,9678815E-004	0	-2,825796162769644E-004	0,0000000E+000	5,4164495E-002	-3,3280268E+000	1,3650734E+002	1,3627713E+002	7,9245744E+000	-3,5511918E+000	2,7014072E+002	2,6962201E+002	1,6732601E+001	7,4667707E-003	4,9321353E-004	7,4830423E-003	3,7791522E+000	-1,773083725229493E-006
1,9955338E+002	1,3394655E+002	9,3190403E+000	1,3427034E+002	-3,9798164E+000	1,268091587430390E+002	1,2995254E+000	-1,0814083E-002	8,5583466E+001	4,1226083E-001	1,000000000000000E+000	39	5,3032141E-002	3,9496541E-004	0	-2,835437374779139E-004	0,0000000E+000	5,3899016E-002	-3,8451076E+000	1,3646516E+002	1,3615797E+002	9,1512756E+000	-3,9119160E+000	2,7073529E+002	2,7010452E+002	1,8470316E+001	7,4297017E-003	5,1690539E-004	7,4476614E-003	3,9798164E+000	-9,641212009495041E-007
1,7778128E+002	1,3452002E+002	9,8014050E+000	1,3487662E+002	-4,1673241E+000	1,272602197244705E+002	1,2995321E+000	-1,0412514E-002	9,1336792E+001	4,8233536E-001	1,000000000000000E+000	39	5,3033330E-002	3,9319886E-004	0	-2,844731240553382E-004	0,0000000E+000	5,3709339E-002	-4,4082384E+000	1,3659587E+002	1,3619179E+002	1,0499084E+001	-4,2885442E+000	2,7147189E+002	2,7071179E+002	2,0300489E+001	7,3945811E-003	5,3878437E-004	7,4141836E-003	4,1673241E+000	-9,293865774242507E-007
1,5852898E+002	1,3509729E+002	1,0404585E+001	1,3549736E+002	-4,4039693E+000	1,277095131591705E+002	1,2995286E+000	-1,0361433E-002	9,6490974E+001	5,6895059E-001	1,000000000000000E+000	39	5,3035311E-002	3,9141212E-004	0	-2,854579295777205E-004	0,0000000E+000	5,3591881E-002	-5,0308089E+000	1,3691933E+002	1,3639188E+002	1,2006647E+001	-4,7190251E+000	2,7241260E+002	2,7148917E+002	2,2411232E+001	7,3584272E-003	5,6671293E-004	7,3802178E-003	4,4039693E+000	-9,848055223822929E-007
1,4121979E+002	1,3571721E+002	1,1047734E+001	1,3616612E+002	-4,6537647E+000	1,281519805401622E+002	1,2995291E+000	-1,0019523E-002	1,0201202E+002	6,7152107E-001	1,000000000000000E+000	39	5,3043269E-002	3,8954822E-004	0	-2,866433528404466E-004	0,0000000E+000	5,3464189E-002	-5,6874757E+000	1,3724666E+002	1,3657103E+002	1,3601452E+001	-5,1726627E+000	2,7340167E+002	2,7228824E+002	2,4649185E+001	7,3197591E-003	5,9584749E-004	7,3439707E-003	4,6537647E+000	-1,185423262726147E-006
1,2592673E+002	1,3629257E+002	1,1640613E+001	1,3678877E+002	-4,8817282E+000	1,285942260544689E+002	1,2995149E+000	-9,8345857E-003	1,0857413E+002	7,8627980E-001	1,000000000000000E+000	39	5,3027846E-002	3,8766226E-004	0	-2,880153171345640E-004	0,0000000E+000	5,3387228E-002	-6,4281721E+000	1,3771582E+002	1,3685001E+002	1,5418325E+001	-5,6575613E+000	2,7447961E+002	2,7314258E+002	2,7058937E+001	7,2840224E-003	6,2212109E-004	7,3105413E-003	4,8817282E+000	-1,371964294117386E-006
1,1219009E+002	1,3685457E+002	1,2399325E+001	1,3741513E+002	-5,1769886E+000	1,290308229819057E+002	1,2995306E+000	-9,5892465E-003	1,1441095E+002	9,3152511E-001	1,000000000000000E+000	39	5,3016402E-002	3,8581196E-004	0	-2,894137618279767E-004	0,0000000E+000	5,3374827E-002	-7,1462054E+000	1,3834415E+002	1,3726949E+002	1,7210245E+001	-6,1649141E+000	2,7571857E+002	2,7412405E+002	2,9609570E+001	7,2475332E-003	6,5664243E-004	7,2772191E-003	5,1769886E+000	-1,398444693412684E-006
9,9968163E+001	1,3752983E+002	1,3237170E+001	1,3816539E+002	-5,4977522E+000	1,294767245230905E+002	1,2995372E+000	-9,3819369E-003	1,2027166E+002	1,1039643E+000	1,000000000000000E+000	39	5,3003684E-002	3,8362489E-004	0	-2,907484369355984E-004	0,0000000E+000	5,3404152E-002	-7,9627223E+000	1,3920930E+002	1,3786711E+002	1,9284496E+001	-6,7348766E+000	2,7731055E+002	2,7539694E+002	3,2521667E+001	7,2044088E-003	6,9342041E-004	7,2377026E-003	5,4977522E+000	-1,334675107621741E-006
8,9115646E+001	1,3819469E+002	1,4193889E+001	1,3892169E+002	-5,8642502E+000	1,299267155311245E+002	1,2995346E+000	-9,1805924E-003	1,2582438E+002	1,3134921E+000	1,000000000000000E+000	39	5,3024959E-002	3,8168955E-004	0	-2,918215806614947E-004	0,0000000E+000	5,3438790E-002	-8,8350601E+000	1,4000591E+002	1,3834468E+002	2,1503580E+001	-7,3554301E+000	2,7883386E+002	2,7653937E+002	3,5697468E+001	7,1606291E-003	7,3546375E-004	7,1982997E-003	5,8642502E+000	-1,073143725896237E-006
7,9415741E+001	1,3885725E+002	1,5183727E+001	1,3968494E+002	-6,2403712E+000	1,303751119523949E+002	1,2995260E+000	-9,0038590E-003	1,3198820E+002	1,5595266E+000	1,000000000000000E+000	39	5,3009953E-002	3,7949657E-004	0	-2,924960288993598E-004	0,0000000E+000	5,3532682E-002	-9,7848330E+000	1,4106236E+002	1,3901031E+002	2,3973356E+001	-8,0212994E+000	2,8061301E+002	2,7786755E+002	3,9157082E+001	7,1165487E-003	7,7817851E-004	7,1589681E-003	6,2403712E+000	-6,744482378651605E-007
7,0793182E+001	1,3961266E+002	1,6345732E+001	1,4056627E+002	-6,6777401E+000	1,308154418933664E+002	1,2995317E+000	-8,8729858E-003	1,3753851E+002	1,8598197E+000	1,000000000000000E+000	39	5,3024501E-002	3,7722065E-004	0	-2,937071597364718E-004	0,0000000E+000	5,3623851E-002	-1,0769303E+001	1,4215514E+002	1,3965143E+002	2,6562401E+001	-8,7350235E+000	2,8254123E+002	2,7926410E+002	4,2908134E+001	7,0658196E-003	8,2726014E-004	7,1140821E-003	6,6777401E+000	-1,211130837111963E-006
6,3082279E+001	1,4044063E+002	1,7656136E+001	1,4154614E+002	-7,1656070E+000	1,312728089817392E+002	1,2995180E+000	-8,5206348E-003	1,4289503E+002	2,2233732E+000	1,000000000000000E+000	39	5,3034585E-002	3,7468053E-004	0	-2,945551654298631E-004	0,0000000E+000	5,3758577E-002	-1,1853377E+001	1,4347844E+002	1,4041898E+002	2,9471603E+001	-9,5253906E+000	2,8478613E+002	2,8085962E+002	4,7127739E+001	7,0096557E-003	8,8125095E-004	7,0648338E-003	7,1656070E+000	-8,480056933913042E-007
5,6241825E+001	1,4127374E+002	1,9071594E+001	1,4255524E+002	-7,6883044E+000	1,317092242024082E+002	1,2995330E+000	-8,4911790E-003	1,4837944E+002	2,6557145E+000	1,000000000000000E+000	39	5,3023785E-002	3,7195254E-004	0	-2,956588501700769E-004	0,0000000E+000	5,3922344E-002	-1,2949593E+001	1,4497104E+002	1,4128407E+002	3,2487103E+001	-1,0341067E+001	2,8722327E+002	2,8255780E+002	5,1558697E+001	6,9517652E-003	9,3847059E-004	7,0148245E-003	7,6883044E+000	-1,103684740213823E-006
5,0112232E+001	1,4218274E+002	2,0616571E+001	1,4366968E+002	-8,2504158E+000	1,321532379301789E+002	1,2995404E+000	-8,3260043E-003	1,5404938E+002	3,1722147E+000	1,000000000000000E+000	39	5,3015269E-002	3,6900805E-004	0	-2,964411353085860E-004	0,0000000E+000	5,4105695E-002	-1,4156682E+001	1,4662471E+002	1,4217180E+002	3,5860645E+001	-1,1233637E+001	2,8990894E+002	2,8435455E+002	5,6477219E+001	6,8883733E-003	9,9881762E-004	6,9604111E-003	8,2504158E+000	-7,822851385091111E-007
4,4671223E+001	1,4319429E+002	2,2284061E+001	1,4491785E+002	-8,8454847E+000	1,326011442714662E+002	1,2995282E+000	-8,0381585E-003	1,5988139E+002	3,7804446E+000	1,000000000000000E+000	39	5,3016521E-002	3,6583847E-004	0	-2,973004591823095E-004	0,0000000E+000	5,4314528E-002	-1,5436792E+001	1,4846588E+002	1,4310992E+002	3,9517929E+001	-1,2181039E+001	2,9289859E+002	2,8630420E+002	6,1801991E+001	6,8183914E-003	1,0610861E-003	6,9004614E-003	8,8454847E+000	-8,593238737234399E-007
3,9808899E+001	1,4438989E+002	2,4111794E+001	1,4638927E+002	-9,4803944E+000	1,330486476260994E+002	1,2995189E+000	-7,9617221E-003	1,6580989E+002	4,4983268E+000	1,000000000000000E+000	39	5,3028457E-002	3,6224278E-004	0	-2,982458582572710E-004	0,0000000E+000	5,4594196E-002	-1,6775896E+001	1,5071162E+002	1,4429749E+002	4,3499748E+001	-1,3181286E+001	2,9649911E+002	2,8868738E+002	6,7611542E+001	6,7378031E-003	1,1251515E-003	6,8311021E-003	9,4803944E+000	-9,453990749615248E-007
3,5488308E+001	1,4555038E+002	2,6118019E+001	1,4787517E+002	-1,0173066E+001	1,334889744736429E+002	1,2995285E+000	-7,8416625E-003	1,7170961E+002	5,3565426E+000	1,000000000000000E+000	39	5,3021815E-002	3,5855794E-004	0	-2,999306620348305E-004	0,0000000E+000	5,4817799E-002	-1,8198660E+001	1,5288408E+002	1,4523672E+002	4,7747639E+001	-1,4252803E+001	3,0002213E+002	2,9078711E+002	7,3865662E+001	6,6561466E-003	1,1943998E-003	6,7624608E-003	1,0173066E+001	-1,684803777559436E-006
3,1629578E+001	1,4701436E+002	2,8335911E+001	1,4972023E+002	-1,0909547E+001	1,339133377204707E+002	1,2995239E+000	-7,7786492E-003	1,7757817E+002	6,3606710E+000	1,000000000000000E+000	39	5,3040110E-002	3,5426146E-004	0	-3,000866985039966E-004	0,0000000E+000	5,5135515E-002	-1,9770639E+001	1,5563509E+002	1,4646106E+002	5,2644463E+001	-1,5426088E+001	3,0444315E+002	2,9347540E+002	8,0980377E+001	6,5584136E-003	1,2640847E-003	6,6791242E-003	1,0909547E+001	-1,560364691661912E-007
2,8187037E+001	1,4840817E+002	3,0678730E+001	1,5154593E+002	-1,1679592E+001	1,343855970762670E+002	1,2995182E+000	-7,5843907E-003	1,8404895E+002	7,5425735E+000	1,000000000000000E+000	39	5,3023987E-002	3,4988724E-004	0	-3,015297379208302E-004	0,0000000E+000	5,5473153E-002	-2,1429462E+001	1,5854581E+002	1,4758524E+002	5,7925583E+001	-1,6664837E+001	3,0897058E+002	2,9599341E+002	8,8604309E+001	6,4620343E-003	1,3358227E-003	6,5986598E-003	1,1679592E+001	-1,443039416833519E-006
2,5120602E+001	1,5005458E+002	3,3310764E+001	1,5370746E+002	-1,2516182E+001	1,348297356573457E+002	1,2995094E+000	-7,4248086E-003	1,9019778E+002	8,9327421E+000	1,000000000000000E+000	39	5,3041786E-002	3,4508269E-004	0	-3,027209917485258E-004	0,0000000E+000	5,5908259E-002	-2,3198605E+001	1,6201410E+002	1,4891444E+002	6,3820515E+001	-1,7998327E+001	3,1435165E+002	2,9896902E+002	9,7131279E+001	6,3512521E-003	1,4099207E-003	6,5058651E-003	1,2516182E+001	-1,191253827695620E-006
2,2385418E+001	1,5188530E+002	3,6259041E+001	1,5615334E+002	-1,3426720E+001	1,354533609135833E+002	1,2995186E+000	-7,2718724E-003	1,9608240E+002	1,0572281E+001	1,000000000000000E+000	40	5,3104378E-002	3,4007840E-004	0	-3,040622130523472E-004	0,0000000E+000	5,6418676E-002	-2,5133627E+001	1,6589903E+002	1,5019167E+002	7,0462433E+001	-1,9457924E+001	3,2037473E+002	3,0207697E+002	1,0672147E+002	6,2289266E-003	1,4870097E-003	6,4039617E-003	1,3426720E+001	-1,341221303821378E-006
1,9955338E+001	1,5380460E+002	3,9260742E+001	1,5873645E+002	-1,4319741E+001	1,359001479214930E+002	1,2995263E+000	-7,2007645E-003	2,0314331E+002	1,2426998E+001	1,000000000000000E+000	40	5,3098846E-002	3,3450947E-004	0	-3,046457261789862E-004	0,0000000E+000	5,7020478E-002	-2,7136068E+001	1,7045998E+002	1,5169675E+002	7,7747681E+001	-2,0957069E+001	3,2714224E+002	3,0550134E+002	1,1700842E+002	6,1040209E-003	1,5581354E-003	6,2997504E-003	1,4319741E+001	-5,835131266390160E-007
1,7775894E+001	1,5599161E+002	4,2615925E+001	1,6170807E+002	-1,5279990E+001	1,363977716518275E+002	1,2995266E+000	-7,0196912E-003	2,1009550E+002	1,4591408E+001	1,000000000000000E+000	40	5,3095851E-002	3,2834386E-004	0	-3,047311081341743E-004	0,0000000E+000	5,7663370E-002	-2,9250805E+001	1,7561885E+002	1,5322554E+002	8,5813255E+001	-2,2554897E+001	3,3482727E+002	3,0921716E+002	1,2842918E+002	5,9653763E-003	1,6297033E-003	6,1839833E-003	1,5279990E+001	-8,538195518810986E-008
1,5846864E+001	1,5840590E+002	4,6084290E+001	1,6497330E+002	-1,6221052E+001	1,368210318052152E+002	1,2995411E+000	-6,7483704E-003	2,1793346E+002	1,7006008E+001	1,000000000000000E+000	40	5,3089745E-002	3,2180813E-004	0	-3,048760091051631E-004	0,0000000E+000	5,8417935E-002	-3,1403643E+001	1,8153033E+002	1,5493935E+002	9,4588905E+001	-2,4177216E+001	3,4347369E+002	3,1334525E+002	1,4067319E+002	5,8202818E-003	1,6932675E-003	6,0615870E-003	1,6221052E+001	-1,449009709887780E-007
1,4127493E+001	1,6097549E+002	4,9879566E+001	1,6852620E+002	-1,7216021E+001	1,372920269209717E+002	1,2995368E+000	-6,6506616E-003	2,2585638E+002	1,9785309E+001	1,000000000000000E+000	40	5,3080767E-002	3,1497041E-004	0	-3,074798654971536E-004	0,0000000E+000	5,9366360E-002	-3,3770000E+001	1,8848235E+002	1,5668077E+002	1,0476988E+002	-2,5958916E+001	3,5330148E+002	3,1765625E+002	1,5464944E+002	5,6679356E-003	1,7562560E-003	5,9337956E-003	1,7216021E+001	-2,603856391990528E-006
1,2587309E+001	1,6381169E+002	5,3933685E+001	1,7246191E+002	-1,8223715E+001	1,378180680659425E+002	1,2995234E+000	-6,7936815E-003	2,3443753E+002	2,2927723E+001	1,000000000000000E+000	40	5,3077843E-002	3,0776559E-004	0	-3,073345935616170E-004	0,0000000E+000	6,0406219E-002	-3,6014812E+001	1,9627347E+002	1,5875874E+002	1,1540770E+002	-2,7698345E+001	3,6431882E+002	3,2257043E+002	1,6934138E+002	5,5075507E-003	1,8133168E-003	5,7983818E-003	1,8223715E+001	1,452719355365950E-007
1,1216775E+001	1,6708290E+002	5,8183437E+001	1,7692374E+002	-1,9199699E+001	1,382179493916046E+002	1,2995188E+000	-6,5213912E-003	2,4386685E+002	2,6374201E+001	1,000000000000000E+000	40	5,3080313E-002	3,0001803E-004	0	-3,086068641780035E-004	0,0000000E+000	6,1593093E-002	-3,8340664E+001	2,0529797E+002	1,6102266E+002	1,2735369E+002	-2,9487289E+001	3,7693140E+002	3,2810556E+002	1,8553712E+002	5,3377696E-003	1,8587766E-003	5,6521529E-003	1,9199699E+001	-1,272270616386475E-006
9,9968166E+000	1,7043185E+002	6,2832916E+001	1,8164523E+002	-2,0237360E+001	1,386637311461091E+002	1,2995316E+000	-6,6561098E-003	2,5337933E+002	3,0317795E+001	1,000000000000000E+000	40	5,3069059E-002	2,9215773E-004	0	-3,085070135932199E-004	0,0000000E+000	6,3129880E-002	-4,0608727E+001	2,1608150E+002	1,6404306E+002	1,4064525E+002	-3,1314283E+001	3,9150586E+002	3,3447491E+002	2,0347816E+002	5,1653855E-003	1,9043168E-003	5,5052368E-003	2,0237360E+001	9,985058478358339E-008
8,9082127E+000	1,7417751E+002	6,7772179E+001	1,8689803E+002	-2,1260929E+001	1,391612095696910E+002	1,2995273E+000	-6,3941539E-003	2,6361984E+002	3,4663433E+001	1,000000000000000E+000	40	5,3064320E-002	2,8392125E-004	0	-3,110864806270757E-004	0,0000000E+000	6,4607657E-002	-4,3072113E+001	2,2755484E+002	1,6622762E+002	1,5540137E+002	-3,3249313E+001	4,0704065E+002	3,4040512E+002	2,2317355E+002	4,9863490E-003	1,9401801E-003	5,3505115E-003	2,1260929E+001	-2,579467033855820E-006
7,9395623E+000	1,7824702E+002	7,3177101E+001	1,9268340E+002	-2,2319990E+001	1,397156194094277E+002	1,2995384E+000	-6,5764212E-003	2,7393555E+002	3,9510288E+001	1,000000000000000E+000	40	5,3064816E-002	2,7539901E-004	0	-3,095189579398005E-004	0,0000000E+000	6,6433929E-002	-4,5218578E+001	2,4122792E+002	1,6992194E+002	1,7122337E+002	-3,5067299E+001	4,2538596E+002	3,4816895E+002	2,4440048E+002	4,8010224E-003	1,9709999E-003	5,1898607E-003	2,2319990E+001	1,567522687275196E-006
7,0765615E+000	1,8294194E+002	7,8980240E+001	1,9926273E+002	-2,3350967E+001	1,400379091313516E+002	1,2995386E+000	-6,2161037E-003	2,8476025E+002	4,4736721E+001	1,000000000000000E+000	40	5,3063255E-002	2,6629795E-004	0	-3,120774194717362E-004	0,0000000E+000	6,8797097E-002	-4,7386051E+001	2,5834631E+002	1,7491470E+002	1,9012538E+002	-3,6942905E+001	4,4774905E+002	3,5785663E+002	2,6910562E+002	4,6074558E-003	1,9891446E-003	5,0185001E-003	2,3350967E+001	-2,558461531935660E-006
6,3105822E+000	1,8764020E+002	8,4443367E+001	2,0576570E+002	-2,4229088E+001	1,403970624284411E+002	1,2995459E+000	-6,3076206E-003	2,9866556E+002	5,0300262E+001	1,000000000000000E+000	40	5,3053439E-002	2,5783421E-004	0	-3,136881147259143E-004	0,0000000E+000	7,0522495E-002	-4,9312771E+001	2,7351877E+002	1,7831493E+002	2,0740372E+002	-3,8572155E+001	4,6807892E+002	3,6595514E+002	2,9184708E+002	4,4317972E-003	1,9944336E-003	4,8598964E-003	2,4229088E+001	-1,610695254178156E-006
5,6245475E+000	1,9251530E+002	9,0598068E+001	2,1276784E+002	-2,5201763E+001	1,407974878341556E+002	1,2995430E+000	-6,2431903E-003	3,1232993E+002	5,6629086E+001	1,000000000000000E+000	40	5,3049341E-002	2,4932969E-004	0	-3,119320769002742E-004	0,0000000E+000	7,2951272E-002	-5,1011143E+001	2,9258960E+002	1,8408838E+002	2,2742062E+002	-4,0179035E+001	4,9291605E+002	3,7660370E+002	3,1801868E+002	4,2525879E-003	2,0012758E-003	4,6999585E-003	2,5201763E+001	1,756037825640137E-006
5,0112233E+000	1,9881570E+002	9,7279938E+001	2,2133926E+002	-2,6072367E+001	1,412422054019116E+002	1,2995408E+000	-6,5727672E-003	3,2647739E+002	6,3064178E+001	1,000000000000000E+000	40	5,3053804E-002	2,3969449E-004	0	-3,119268138395289E-004	0,0000000E+000	7,5646937E-002	-5,2358311E+001	3,1559732E+002	1,9274207E+002	2,4990431E+002	-4,1562584E+001	5,2331097E+002	3,9155777E+002	3,4718427E+002	4,0582027E-003	1,9856666E-003	4,5179510E-003	2,6072367E+001	5,263060745249251E-009
4,4642835E+000	2,0457213E+002	1,0457195E+002	2,2974997E+002	-2,7074936E+001	1,417376754787983E+002	1,2995348E+000	-6,7717289E-003	3,4092053E+002	7,0627304E+001	1,000000000000000E+000	40	5,3047068E-002	2,3089042E-004	0	-3,152245479153013E-004	0,0000000E+000	7,8520678E-002	-5,4376633E+001	3,4007767E+002	1,9807979E+002	2,7643665E+002	-4,3417995E+001	5,5434296E+002	4,0265192E+002	3,8100861E+002	3,8755694E-003	1,9810903E-003	4,3525575E-003	2,7074936E+001	-3,297734075772369E-006
3,9819033E+000	2,1185811E+002	1,1229118E+002	2,3977733E+002	-2,7924936E+001	1,422909417183546E+002	1,2995321E+000	-6,5575643E-003	3,5594571E+002	7,8065437E+001	1,000000000000000E+000	40	5,3046297E-002	2,2123150E-004	0	-3,178999372237757E-004	0,0000000E+000	8,0452532E-002	-5,5759972E+001	3,6365765E+002	2,0461601E+002	3,0063129E+002	-4,4754646E+001	5,8647729E+002	4,1647412E+002	4,1292245E+002	3,6849268E-003	1,9531221E-003	4,1705361E-003	2,7924936E+001	-2,675389308474344E-006
3,5479143E+000	2,1897980E+002	1,2125093E+002	2,5030769E+002	-2,8973663E+001	1,429077120677102E+002	1,2995392E+000	-6,4072516E-003	3,6996613E+002	8,6812790E+001	1,000000000000000E+000	40	5,3042851E-002	2,1191059E-004	0	-3,174504397805786E-004	0,0000000E+000	8,3200179E-002	-5,7189671E+001	3,9261926E+002	2,1274458E+002	3,2998428E+002	-4,6265865E+001	6,2449915E+002	4,3172437E+002	4,5123523E+002	3,4950681E-003	1,9352483E-003	3,9950828E-003	2,8973663E+001	4,494974431970078E-007
3,1629577E+000	2,2752646E+002	1,2995503E+002	2,6202405E+002	-2,9733473E+001	1,435959339136898E+002	1,2995416E+000	-6,5079457E-003	3,8719849E+002	9,5243980E+001	1,000000000000000E+000	40	5,3031996E-002	2,0239361E-004	0	-3,159311553839636E-004	0,0000000E+000	8,5861191E-002	-5,8363987E+001	4,2422876E+002	2,2251695E+002	3,6118726E+002	-4,7500355E+001	6,6615295E+002	4,5004340E+002	4,9114227E+002	3,3139777E-003	1,8928264E-003	3,8164435E-003	2,9733473E+001	1,519284396615046E-006
2,8183610E+000	2,3748892E+002	1,4082353E+002	2,7610190E+002	-3,0666620E+001	1,443657454702770E+002	1,2995309E+000	-6,6133649E-003	4,0100363E+002	1,0431817E+002	1,000000000000000E+000	40	5,3034928E-002	1,9208463E-004	0	-3,167133592066150E-004	0,0000000E+000	8,9138582E-002	-5,9433041E+001	4,6405890E+002	2,3599481E+002	3,9957117E+002	-4,8775764E+001	7,1847986E+002	4,7348373E+002	5,4039471E+002	3,1153338E-003	1,8472959E-003	3,6218513E-003	3,0666620E+001	-7,822038226513637E-007
2,5112481E+000	2,4747649E+002	1,5242120E+002	2,9064899E+002	-3,1628986E+001	1,452262101244705E+002	1,2995389E+000	-6,5317983E-003	4,1580063E+002	1,1435056E+002	1,000000000000000E+000	40	5,3039186E-002	1,8248535E-004	0	-3,205579941683795E-004	0,0000000E+000	9,2438117E-002	-6,1148964E+001	5,0655087E+002	2,4442805E+002	4,4367636E+002	-5,0470272E+001	7,7285339E+002	4,9190454E+002	5,9609753E+002	2,9295189E-003	1,8042957E-003	3,4405761E-003	3,1628986E+001	-3,844634961764509E-006
2,2398233E+000	2,5956601E+002	1,6478778E+002	3,0745654E+002	-3,2409782E+001	1,461885443835490E+002	1,2995455E+000	-6,2536658E-003	4,3120261E+002	1,2386936E+002	1,000000000000000E+000	40	5,3029783E-002	1,7247895E-004	0	-3,250967597347505E-004	0,0000000E+000	9,4604798E-002	-6,2603992E+001	5,4850055E+002	2,5238591E+002	4,8698480E+002	-5,1851208E+001	8,2879565E+002	5,1195190E+002	6,5177258E+002	2,7458724E-003	1,7432413E-003	3,2524923E-003	3,2409782E+001	-4,538765566370988E-006
1,9950197E+000	2,7286072E+002	1,7995869E+002	3,2686099E+002	-3,3405880E+001	1,472653021946608E+002	1,2995466E+000	-5,9668999E-003	4,4330246E+002	1,3437535E+002	1,000000000000000E+000	40	5,3037375E-002	1,6226279E-004	0	-3,277002531076024E-004	0,0000000E+000	9,7080097E-002	-6,3730999E+001	5,9828931E+002	2,6479453E+002	5,3650159E+002	-5,3114235E+001	8,9576141E+002	5,3765527E+002	7,1646027E+002	2,5539645E-003	1,6844054E-003	3,0594044E-003	3,3405880E+001	-2,603493372851961E-006
1,7775893E+000	2,8686801E+002	1,9580902E+002	3,4732468E+002	-3,4316479E+001	1,484718002519803E+002	1,2995392E+000	-5,8379374E-003	4,5725241E+002	1,4532828E+002	1,000000000000000E+000	40	5,3031005E-002	1,5268424E-004	0	-3,277498359700468E-004	0,0000000E+000	9,9979371E-002	-6,4800606E+001	6,5481134E+002	2,7879883E+002	5,9249396E+002	-5,4337708E+001	9,7025800E+002	5,6566687E+002	7,8830298E+002	2,3779946E-003	1,6231603E-003	2,8791504E-003	3,4316479E+001	-4,958286244435709E-008
1,5846864E+000	3,0386865E+002	2,1301654E+002	3,7109595E+002	-3,5031040E+001	1,498204085027246E+002	1,2995346E+000	-5,8197537E-003	4,7148019E+002	1,5535229E+002	1,000000000000000E+000	40	5,3032991E-002	1,4290911E-004	0	-3,266663913010836E-004	0,0000000E+000	1,0250348E-001	-6,5673134E+001	7,1726343E+002	2,9547067E+002	6,5357776E+002	-5,5332142E+001	1,0536571E+003	5,9933936E+002	8,6659430E+002	2,2065483E-003	1,5468240E-003	2,6947209E-003	3,5031040E+001	1,083444668963139E-006
1,4122353E+000	3,2371680E+002	2,3374129E+002	3,9928381E+002	-3,5831348E+001	1,513333743878466E+002	1,2995374E+000	-5,7237539E-003	4,8214499E+002	1,6522856E+002	1,000000000000000E+000	40	5,3032402E-002	1,3281881E-004	0	-3,269649911482330E-004	0,0000000E+000	1,0491645E-001	-6,6315796E+001	7,8992163E+002	3,1730783E+002	7,2338922E+002	-5,6188358E+001	1,1519598E+003	6,4102466E+002	9,5713049E+002	2,0304946E-003	1,4661285E-003	2,5044843E-003	3,5831348E+001	-2,985998471493581E-007
1,2582541E+000	3,4498013E+002	2,5758240E+002	4,3053455E+002	-3,6747177E+001	1,530273546550015E+002	1,2995462E+000	-5,4700789E-003	4,9106122E+002	1,7577292E+002	1,000000000000000E+000	40	5,3032212E-002	1,2317760E-004	0	-3,303966203864895E-004	0,0000000E+000	1,0768752E-001	-6,7193184E+001	8,7424597E+002	3,3887985E+002	8,0589484E+002	-5,7257301E+001	1,2643767E+003	6,8385999E+002	1,0634773E+003	1,8611359E-003	1,3896333E-003	2,3226941E-003	3,6747177E+001	-3,431629238256526E-006
1,1224822E+000	3,6926251E+002	2,8315607E+002	4,6533017E+002	-3,7481533E+001	1,549226271183870E+002	1,2995477E+000	-5,0272793E-003	5,0074292E+002	1,8541469E+002	1,000000000000000E+000	40	5,3028598E-002	1,1395908E-004	0	-3,361009542641105E-004	0,0000000E+000	1,0975408E-001	-6,8350571E+001	9,6310077E+002	3,5531345E+002	8,9516223E+002	-5,8411655E+001	1,3832731E+003	7,2457593E+002	1,1783184E+003	1,7053472E-003	1,3076859E-003	2,1490117E-003	3,7481533E+001	-5,704333877621010E-006
1,0000616E+000	3,9807062E+002	3,1356299E+002	5,0673657E+002	-3,8227749E+001	1,570466825259209E+002	1,2995533E+000	-4,4986154E-003	5,0753799E+002	1,9433618E+002	1,000000000000000E+000	40	5,3030074E-002	1,0465018E-004	0	-3,420139292621898E-004	0,0000000E+000	1,1093844E-001	-6,9397316E+001	1,0600885E+003	3,7302975E+002	9,9228851E+002	-5,9438313E+001	1,5165237E+003	7,7110034E+002	1,3058516E+003	1,5502282E-003	1,2211255E-003	1,9734120E-003	3,8227749E+001	-5,912974998079242E-006