File: doc/files/data_raw_demo/20240326_DCP2_JULE_Ni_W_130224_BCV_EIS_i_004_02_PEIS_C01.mpt
EC-Lab ASCII FILE
Nb header lines : 70

Potentio Electrochemical Impedance Spectroscopy

Run on channel : 1 (SN 14323)
User :
Electrode connection : CE to ground
Potential control : Ewe
Ewe ctrl range : min = -10,00 V, max = 10,00 V
Ewe,I filtering : 50 kHz
Safety Limits :
	Do not start on E overload
Channel : Floating
Acquisition started on : 03/26/2024 15:31:47.051
Technique started on : 03/26/2024 15:32:40.508
Loaded Setting File :  C:\Users\Operator\Documents\DCP2_rawdata\CV\2024-03-26\20240326_DCP2_JULE_Ni_W_130224_BCV_EIS_i_000.mps
Saved on :
	File : 20240326_DCP2_JULE_Ni_W_130224_BCV_EIS_i_004_02_PEIS_C01.mpr
	Directory : C:\Users\Operator\Documents\DCP2_rawdata\CV\2024-03-26\
	Host : 134.60.37.140
Device : VSP-300 (SN 0936)
Address : USB
EC-Lab for windows v11.41 (software)
Internet server v11.40 (firmware)
Command interpretor v11.41 (firmware)
Electrode material :
Initial state :
Electrolyte :
Comments :
Cable : standard
Electrode surface area : 0,001 cm²
Characteristic mass : 0,001 g
Equivalent Weight : 0,000 g/eq.
Density : 0,000 g/cm3
Volume (V) : 0,001 cm³
Record Ece
Text export
   Mode : Standard
   Time format : Elapsed
Cycle Definition : Charge/Discharge alternance
Mode                Single sine
E (V)               1,4000
vs.                 Ref
tE (h:m:s)          0:00:0,0000
record              0
dI                  0,000
unit dI             mA
dt (s)              0,000
fi                  100,000
unit fi             kHz
ff                  1,000
unit ff             Hz
Nd                  20
Points              per decade
spacing             Logarithmic
Va (mV)             50,0
pw                  0,10
Na                  2
corr                0
E range min (V)     -10,000
E range max (V)     10,000
I Range             Auto
Bandwidth           8
nc cycles           0
goto Ns'            0
nr cycles           0
inc. cycle          0

freq/Hz	Re(Z)/Ohm	-Im(Z)/Ohm	|Z|/Ohm	Phase(Z)/deg	time/s	<Ewe>/V	<I>/mA	Cs/µF	Cp/µF	cycle number	I Range	|Ewe|/V	|I|/A	Ns	(Q-Qo)/mA.h	<Ece>/V	|Ece|/V	Phase(Zce)/deg	|Zce|/Ohm	Re(Zce)/Ohm	-Im(Zce)/Ohm	Phase(Zwe-ce)/deg	|Zwe-ce|/Ohm	Re(Zwe-ce)/Ohm	-Im(Zwe-ce)/Ohm	Re(Y)/Ohm-1	Im(Y)/Ohm-1	|Y|/Ohm-1	Phase(Y)/deg	dq/mA.h
1,0000371E+005	1,2854245E+002	6,1945400E+000	1,2869162E+002	-2,7589848E+000	5,345694333902793E+001	1,3994939E+000	-1,0659600E-001	2,5691822E-001	5,9526798E-004	1,000000000000000E+000	39	4,9480472E-002	3,8448867E-004	0	-4,379762967023999E-005	1,0438001E+000	5,2511718E-002	-4,6901984E+000	1,3657547E+002	1,3611813E+002	1,1167504E+001	-3,7532926E+000	2,6522946E+002	2,6466058E+002	1,7362045E+001	7,7615064E-003	3,7403184E-004	7,7705137E-003	2,7589848E+000	-4,379762967023999E-005
8,9129305E+004	1,2851422E+002	5,4558582E+000	1,2862997E+002	-2,4309378E+000	5,383395746356109E+001	1,3995061E+000	-6,5926552E-002	3,2729286E-001	5,8881426E-004	1,000000000000000E+000	39	5,0544538E-002	3,9294525E-004	0	-5,179119971129047E-005	1,0378158E+000	5,3681310E-002	-4,1614995E+000	1,3661270E+002	1,3625252E+002	9,9137135E+000	-3,3222620E+000	2,6521243E+002	2,6476672E+002	1,5369572E+001	7,7672414E-003	3,2974538E-004	7,7742375E-003	2,4309378E+000	-7,993570041050485E-006
7,9433273E+004	1,2852238E+002	4,7933307E+000	1,2861174E+002	-2,1358955E+000	5,421093598817242E+001	1,3994848E+000	-4,4461504E-002	4,1800383E-001	5,8062247E-004	1,000000000000000E+000	39	5,0682284E-002	3,9407198E-004	0	-5,711268345674358E-005	1,0411590E+000	5,3841010E-002	-3,7152207E+000	1,3662735E+002	1,3634023E+002	8,8530979E+000	-2,9494236E+000	2,6521393E+002	2,6486261E+002	1,3646429E+001	7,7699376E-003	2,8978515E-004	7,7753398E-003	2,1358955E+000	-5,321483745453104E-006
7,0794984E+004	1,2849884E+002	4,2421155E+000	1,2856885E+002	-1,8908113E+000	5,458793659275398E+001	1,3994777E+000	-3,1597167E-002	5,2995032E-001	5,7693734E-004	1,000000000000000E+000	39	5,0698463E-002	3,9432928E-004	0	-6,062046478923488E-005	1,0374342E+000	5,3891238E-002	-3,3184407E+000	1,3666557E+002	1,3643642E+002	7,9109335E+000	-2,6264179E+000	2,6521384E+002	2,6493524E+002	1,2153049E+001	7,7736992E-003	2,5663211E-004	7,7779340E-003	1,8908113E+000	-3,507781332491300E-006
6,3093828E+004	1,2854233E+002	3,7757368E+000	1,2859776E+002	-1,6824933E+000	5,496492450399091E+001	1,3994788E+000	-2,3801461E-002	6,6808474E-001	5,7592790E-004	1,000000000000000E+000	39	5,0701033E-002	3,9426060E-004	0	-6,293612282990621E-005	1,0385487E+000	5,3890534E-002	-2,9626536E+000	1,3668759E+002	1,3650490E+002	7,0647011E+000	-2,3420932E+000	2,6526883E+002	2,6504724E+002	1,0840438E+001	7,7728326E-003	2,2831523E-004	7,7761849E-003	1,6824933E+000	-2,315658040671331E-006
5,6237012E+004	1,2852382E+002	3,3431523E+000	1,2856729E+002	-1,4900377E+000	5,534196724189678E+001	1,3994846E+000	-1,8391671E-002	8,4652883E-001	5,7239138E-004	1,000000000000000E+000	39	5,0681014E-002	3,9419835E-004	0	-6,444231364960757E-005	1,0317553E+000	5,3915195E-002	-2,6145649E+000	1,3677174E+002	1,3662936E+002	6,2391071E+000	-2,0696871E+000	2,6532629E+002	2,6515320E+002	9,5822592E+000	7,7753980E-003	2,0225310E-004	7,7780280E-003	1,4900377E+000	-1,506190819701358E-006
5,0122477E+004	1,2848607E+002	2,9248402E+000	1,2851935E+002	-1,3040485E+000	5,571896005980670E+001	1,3994865E+000	-1,4787999E-002	1,0856390E+000	5,6228013E-004	1,000000000000000E+000	39	5,0674923E-002	3,9429803E-004	0	-6,664122291251421E-005	1,0687215E+000	5,3876840E-002	-2,3358223E+000	1,3663989E+002	1,3652637E+002	5,5689640E+000	-1,8357348E+000	2,6514853E+002	2,6501245E+002	8,4938040E+000	7,7789142E-003	1,7707821E-004	7,7809296E-003	1,3040485E+000	-2,198909262906648E-006
4,4666715E+004	1,2848112E+002	2,5656705E+000	1,2850674E+002	-1,1440011E+000	5,609594375768211E+001	1,3994797E+000	-1,2116102E-002	1,3887857E+000	5,5358605E-004	1,000000000000000E+000	39	5,0652552E-002	3,9416261E-004	0	-6,771280038830203E-005	1,0400982E+000	5,3854380E-002	-2,0571165E+000	1,3662985E+002	1,3654179E+002	4,9044304E+000	-1,6145470E+000	2,6512817E+002	2,6502292E+002	7,4701009E+000	7,7801417E-003	1,5536352E-004	7,7816928E-003	1,1440011E+000	-1,071577475787814E-006
3,9814063E+004	1,2849586E+002	2,2327650E+000	1,2851526E+002	-9,9548054E-001	5,647294705559034E+001	1,3994793E+000	-1,0153007E-002	1,7903610E+000	5,4040243E-004	1,000000000000000E+000	39	5,0641611E-002	3,9405137E-004	0	-6,883314314850658E-005	1,0392356E+000	5,3870983E-002	-1,7910594E+000	1,3671056E+002	1,3664377E+002	4,2728601E+000	-1,4055614E+000	2,6521945E+002	2,6513965E+002	6,5056248E+000	7,7800029E-003	1,3518658E-004	7,7811773E-003	9,9548054E-001	-1,120342760204554E-006
3,5481000E+004	1,2844499E+002	1,9608222E+000	1,2845996E+002	-8,7460095E-001	5,684995499352226E+001	1,3994573E+000	-8,7227253E-003	2,2876313E+000	5,3299963E-004	1,000000000000000E+000	39	5,0657194E-002	3,9434229E-004	0	-6,901111594612788E-005	1,0391746E+000	5,3909693E-002	-1,6163212E+000	1,3670787E+002	1,3665347E+002	3,8560348E+000	-1,2569968E+000	2,6516226E+002	2,6509845E+002	5,8168569E+000	7,7836197E-003	1,1882359E-004	7,7845268E-003	8,7460095E-001	-1,779727976213013E-007
3,1621143E+004	1,2842268E+002	1,7063267E+000	1,2843402E+002	-7,6123285E-001	5,722696511808317E+001	1,3995051E+000	-7,5899819E-003	2,9497173E+000	5,2064849E-004	1,000000000000000E+000	39	5,0631586E-002	3,9422253E-004	0	-6,898058046674124E-005	1,0357550E+000	5,3894650E-002	-1,4289515E+000	1,3671124E+002	1,3666873E+002	3,4092126E+000	-1,1055146E+000	2,6514078E+002	2,6509143E+002	5,1155396E+000	7,7854116E-003	1,0344322E-004	7,7860989E-003	7,6123285E-001	3,053547938664642E-008
2,8188094E+004	1,2836482E+002	1,5289764E+000	1,2837393E+002	-6,8242800E-001	5,760393348266371E+001	1,3994849E+000	-6,5724538E-003	3,6927817E+000	5,2384345E-004	1,000000000000000E+000	39	5,0589379E-002	3,9407829E-004	0	-6,901234770260311E-005	1,0371518E+000	5,3883165E-002	-1,2690725E+000	1,3673213E+002	1,3669859E+002	3,0282998E+000	-9,8499817E-001	2,6510260E+002	2,6506342E+002	4,5572762E+000	7,7891909E-003	9,2778449E-005	7,7897436E-003	6,8242800E-001	-3,176723586187900E-008
2,5116906E+004	1,2827086E+002	1,3308376E+000	1,2827776E+002	-5,9443468E-001	5,798095723387087E+001	1,3994731E+000	-5,8580581E-003	4,7613368E+000	5,1247934E-004	1,000000000000000E+000	39	5,0615478E-002	3,9457719E-004	0	-6,872333749978700E-005	0,0000000E+000	5,3907380E-002	-1,1342733E+000	1,3662062E+002	1,3659386E+002	2,7044749E+000	-8,7285501E-001	2,6489545E+002	2,6486472E+002	4,0353127E+000	7,7951644E-003	8,0876503E-005	7,7955839E-003	5,9443468E-001	2,890102028161142E-007
2,2389031E+004	1,2825734E+002	1,1158327E+000	1,2826219E+002	-4,9845797E-001	5,835794959845953E+001	1,3994837E+000	-5,1910160E-003	6,3706794E+000	4,8215489E-004	1,000000000000000E+000	39	5,0564572E-002	3,9422821E-004	0	-6,998423769752197E-005	0,0000000E+000	5,3864639E-002	-1,0237148E+000	1,3663315E+002	1,3661134E+002	2,4411211E+000	-7,6938576E-001	2,6489258E+002	2,6486868E+002	3,5569539E+000	7,7962345E-003	6,7826870E-005	7,7965297E-003	4,9845797E-001	-1,260900197734969E-006
1,9948781E+004	1,2825992E+002	1,0514290E+000	1,2826422E+002	-4,6967989E-001	5,873495854972862E+001	1,3994641E+000	-4,7193510E-003	7,5879383E+000	5,0988549E-004	1,000000000000000E+000	39	5,0549023E-002	3,9410073E-004	0	-6,982437758169544E-005	0,0000000E+000	5,3812850E-002	-9,2270565E-001	1,3654593E+002	1,3652823E+002	2,1988750E+000	-7,0327675E-001	2,6480811E+002	2,6478815E+002	3,2503040E+000	7,7961441E-003	6,3910018E-005	7,7964063E-003	4,6967989E-001	1,598601158265265E-007
1,7786891E+004	1,2821219E+002	9,7985274E-001	1,2821593E+002	-4,3787050E-001	5,911194096761756E+001	1,3994631E+000	-4,1723689E-003	9,1318607E+000	5,3333119E-004	1,000000000000000E+000	39	5,0529048E-002	3,9409337E-004	0	-6,975604518672077E-005	0,0000000E+000	5,3842541E-002	-7,7435464E-001	1,3662383E+002	1,3661134E+002	1,8464199E+000	-6,1145377E-001	2,6483862E+002	2,6482355E+002	2,8262727E+000	7,7991155E-003	5,9604201E-005	7,7993432E-003	4,3787050E-001	6,833239497467682E-008
1,5847683E+004	1,2812312E+002	9,1527301E-001	1,2812639E+002	-4,0929684E-001	5,936693073972128E+001	1,3994613E+000	-3,9285193E-003	1,0972452E+001	5,5992242E-004	1,000000000000000E+000	39	5,4717932E-002	4,2706216E-004	0	-6,986685649870358E-005	0,0000000E+000	5,8335572E-002	-7,2520602E-001	1,3659738E+002	1,3658644E+002	1,7288986E+000	-5,7230586E-001	2,6472278E+002	2,6470956E+002	2,6441717E+000	7,8045940E-003	5,5753673E-005	7,8047933E-003	4,0929684E-001	-1,108113119828165E-007
1,4121883E+004	1,2814389E+002	8,5237145E-001	1,2814673E+002	-3,8110724E-001	5,974393123760819E+001	1,3994651E+000	-3,6895177E-003	1,3222045E+001	5,8498047E-004	1,000000000000000E+000	39	5,0873317E-002	3,9699272E-004	0	-7,038024628691751E-005	0,0000000E+000	5,4245453E-002	-6,4878434E-001	1,3664093E+002	1,3663217E+002	1,5472100E+000	-5,1923925E-001	2,6478693E+002	2,6477606E+002	2,3995814E+000	7,8033819E-003	5,1905554E-005	7,8035546E-003	3,8110724E-001	-5,133897882139265E-007
1,2590930E+004	1,2814047E+002	7,7822602E-001	1,2814284E+002	-3,4796590E-001	5,999894578306703E+001	1,3994735E+000	-3,4441766E-003	1,6242640E+001	5,9907255E-004	1,000000000000000E+000	39	5,4258101E-002	4,2341891E-004	0	-7,023411907619448E-005	0,0000000E+000	5,7844426E-002	-5,8296931E-001	1,3661276E+002	1,3660570E+002	1,3899745E+000	-4,6922669E-001	2,6475504E+002	2,6474615E+002	2,1682005E+000	7,8036478E-003	4,7393311E-005	7,8037917E-003	3,4796590E-001	1,461272107230294E-007
1,1217713E+004	1,2807062E+002	7,4259979E-001	1,2807277E+002	-3,3221793E-001	6,037595065432834E+001	1,3994762E+000	-3,1898885E-003	1,9105614E+001	6,4232829E-004	1,000000000000000E+000	39	5,0705172E-002	3,9590910E-004	0	-7,004582756108721E-005	0,0000000E+000	5,4065764E-002	-5,0655115E-001	1,3656105E+002	1,3655571E+002	1,2073185E+000	-4,2218044E-001	2,6463351E+002	2,6462634E+002	1,9499183E+000	7,8079295E-003	4,5273198E-005	7,8080609E-003	3,3221793E-001	1,882915151072659E-007
1,0002226E+004	1,2810748E+002	6,8015337E-001	1,2810928E+002	-3,0419418E-001	6,063096306641819E+001	1,3994935E+000	-3,0120341E-003	2,3394653E+001	6,5943069E-004	1,000000000000000E+000	39	5,3061131E-002	4,1418648E-004	0	-7,054288448331256E-005	0,0000000E+000	5,6595854E-002	-4,6394259E-001	1,3664342E+002	1,3663893E+002	1,1064341E+000	-3,8664311E-001	2,6475244E+002	2,6474640E+002	1,7865875E+000	7,8057256E-003	4,1442469E-005	7,8058355E-003	3,0419418E-001	-4,970569222253481E-007
8,9166387E+003	1,2810970E+002	6,7813277E-001	1,2811150E+002	-3,0328524E-001	6,100795956433285E+001	1,3995259E+000	-2,5627417E-003	2,6321112E+001	7,3749229E-004	1,000000000000000E+000	39	5,1402975E-002	4,0123626E-004	0	-7,094360231345087E-005	0,0000000E+000	5,4813117E-002	-4,2856565E-001	1,3661058E+002	1,3660677E+002	1,0218215E+000	-3,6793658E-001	2,6472192E+002	2,6471646E+002	1,6999543E+000	7,8055914E-003	4,1317926E-005	7,8057009E-003	3,0328524E-001	-4,007178301383035E-007
7,9424009E+003	1,2811542E+002	7,0429254E-001	1,2811736E+002	-3,1497055E-001	6,126296744309366E+001	1,3995155E+000	-2,5966710E-003	2,8452160E+001	8,5981592E-004	1,000000000000000E+000	39	5,4269575E-002	4,2359266E-004	0	-7,147848681470512E-005	0,0000000E+000	5,7854727E-002	-3,8247666E-001	1,3658104E+002	1,3657800E+002	9,1173685E-001	-3,4980285E-001	2,6469836E+002	2,6469342E+002	1,6160294E+000	7,8052259E-003	4,2907890E-005	7,8053437E-003	3,1497055E-001	-5,348845012542540E-007
7,0794971E+003	1,2812422E+002	6,6068846E-001	1,2812593E+002	-2,9545015E-001	6,163996199436951E+001	1,3995289E+000	-2,4236664E-003	3,4026791E+001	9,0477453E-004	1,000000000000000E+000	39	5,0711531E-002	3,9579446E-004	0	-7,186607097066007E-005	0,0000000E+000	5,4079961E-002	-3,2497290E-001	1,3663647E+002	1,3663428E+002	7,7497703E-001	-3,1068605E-001	2,6476239E+002	2,6475848E+002	1,4356655E+000	7,8047174E-003	4,0245992E-005	7,8048212E-003	2,9545015E-001	-3,875841559549531E-007
6,3093828E+003	1,2814427E+002	6,5677017E-001	1,2814595E+002	-2,9365206E-001	6,189493677980499E+001	1,3995249E+000	-2,3103165E-003	3,8407837E+001	1,0088739E-003	1,000000000000000E+000	39	5,2842841E-002	4,1236452E-004	0	-7,184053315861255E-005	0,0000000E+000	5,6345843E-002	-2,8924057E-001	1,3664085E+002	1,3663911E+002	6,8978751E-001	-2,9137555E-001	2,6478680E+002	2,6478339E+002	1,3465576E+000	7,8034997E-003	3,9994811E-005	7,8036021E-003	2,9365206E-001	2,553781204752824E-008
5,6227744E+003	1,2817278E+002	7,4544448E-001	1,2817494E+002	-3,3322477E-001	6,214993687189417E+001	1,3995351E+000	-2,2435749E-003	3,7971188E+001	1,2843356E-003	1,000000000000000E+000	39	5,4763481E-002	4,2725573E-004	0	-7,186031266030235E-005	0,0000000E+000	5,8363371E-002	-2,7179277E-001	1,3660056E+002	1,3659901E+002	6,4798671E-001	-3,0153131E-001	2,6477545E+002	2,6477179E+002	1,3934312E+000	7,8017050E-003	4,5374207E-005	7,8018368E-003	3,3322477E-001	-1,977950168980021E-008
5,0103887E+003	1,2814418E+002	7,3633695E-001	1,2814630E+002	-3,2922706E-001	6,252693963650381E+001	1,3995296E+000	-2,1429043E-003	4,3139202E+001	1,4243383E-003	1,000000000000000E+000	39	5,0618540E-002	3,9500586E-004	0	-7,185354296384483E-005	0,0000000E+000	5,3987052E-002	-2,3379199E-001	1,3667406E+002	1,3667291E+002	5,5768871E-001	-2,7997294E-001	2,6482025E+002	2,6481708E+002	1,2940257E+000	7,8034517E-003	4,4839879E-005	7,8035807E-003	3,2922706E-001	6,769696457516227E-009
4,4655278E+003	1,2819699E+002	7,8694528E-001	1,2819940E+002	-3,5170934E-001	6,279748855601065E+001	1,3995299E+000	-1,9762369E-003	4,5290051E+001	1,7065534E-003	1,000000000000000E+000	39	5,1914051E-002	4,0494770E-004	0	-7,235524405997906E-005	0,0000000E+000	5,5353492E-002	-2,2721630E-001	1,3669295E+002	1,3669188E+002	5,4207808E-001	-2,8746694E-001	2,6489218E+002	2,6488885E+002	1,3290234E+000	7,8002014E-003	4,7882029E-005	7,8003486E-003	3,5170934E-001	-5,017010961342331E-007
3,9796606E+003	1,2823779E+002	7,9665548E-001	1,2824026E+002	-3,5593572E-001	6,309662158356514E+001	1,3995453E+000	-1,9904042E-003	5,0199978E+001	1,9372953E-003	1,000000000000000E+000	39	5,3033914E-002	4,1355120E-004	0	-7,274034598560926E-005	0,0000000E+000	5,6535162E-002	-1,8523701E-001	1,3670656E+002	1,3670584E+002	4,4197094E-001	-2,6785907E-001	2,6494653E+002	2,6494363E+002	1,2386265E+000	7,7977125E-003	4,8441965E-005	7,7978629E-003	3,5593572E-001	-3,851019256301985E-007
3,5480037E+003	1,2825700E+002	8,5261381E-001	1,2825984E+002	-3,8087940E-001	6,342836863931734E+001	1,3995520E+000	-1,9128497E-003	5,2611866E+001	2,3249148E-003	1,000000000000000E+000	39	5,3946123E-002	4,2060023E-004	0	-7,289466725321917E-005	0,0000000E+000	5,7457224E-002	-1,6830239E-001	1,3660768E+002	1,3660709E+002	4,0127504E-001	-2,7124101E-001	2,6486703E+002	2,6486407E+002	1,2538888E+000	7,7965003E-003	5,1828778E-005	7,7966726E-003	3,8087940E-001	-1,543212676099125E-007
3,1630769E+003	1,2827202E+002	8,8434577E-001	1,2827507E+002	-3,9500800E-001	6,379603807014792E+001	1,3995472E+000	-1,7275398E-003	5,6896854E+001	2,7042569E-003	1,000000000000000E+000	39	5,4705568E-002	4,2647077E-004	0	-7,299367775537798E-005	0,0000000E+000	5,8313053E-002	-1,5497538E-001	1,3673399E+002	1,3673349E+002	3,6984184E-001	-2,7116087E-001	2,6500845E+002	2,6500549E+002	1,2541876E+000	7,7955616E-003	5,3744934E-005	7,7957469E-003	3,9500800E-001	-9,901050215880810E-008
2,8175339E+003	1,2827533E+002	9,9208832E-001	1,2827916E+002	-4,4311982E-001	6,440203476559691E+001	1,3995595E+000	-1,4471522E-003	5,6937794E+001	3,4055645E-003	1,000000000000000E+000	39	5,0545581E-002	3,9402800E-004	0	-7,360566060046161E-005	0,0000000E+000	5,3850211E-002	-1,4602678E-001	1,3666595E+002	1,3666551E+002	3,4831303E-001	-2,8987107E-001	2,6494424E+002	2,6494086E+002	1,3404014E+000	7,7952654E-003	6,0289007E-005	7,7954987E-003	4,4311982E-001	-6,119828450836239E-007
2,5124104E+003	1,2825745E+002	9,9533260E-001	1,2826131E+002	-4,4463083E-001	6,484812396010966E+001	1,3995514E+000	-1,4132217E-003	6,3644562E+001	3,8327144E-003	1,000000000000000E+000	39	5,1016621E-002	3,9775536E-004	0	-7,349885222024426E-005	0,0000000E+000	5,4349978E-002	-1,3087468E-001	1,3664172E+002	1,3664137E+002	3,1211594E-001	-2,8278977E-001	2,6490204E+002	2,6489880E+002	1,3074485E+000	7,7963490E-003	6,0503004E-005	7,7965837E-003	4,4463083E-001	1,068083802173409E-007
2,2492781E+003	1,2832347E+002	1,0498834E+000	1,2832776E+002	-4,6875715E-001	6,529431920795469E+001	1,3995411E+000	-1,4385759E-003	6,7396278E+001	4,5110416E-003	1,000000000000000E+000	39	5,1390771E-002	4,0046495E-004	0	-7,358779077796336E-005	0,0000000E+000	5,4770108E-002	-8,5163191E-002	1,3676630E+002	1,3676614E+002	2,0328636E-001	-2,7085486E-001	2,6509256E+002	2,6508960E+002	1,2531698E+000	7,7922856E-003	6,3752879E-005	7,7925464E-003	4,6875715E-001	-8,893855771909551E-008
1,9956381E+003	1,2835652E+002	1,2042768E+000	1,2836217E+002	-5,3754926E-001	6,574022672248248E+001	1,3995508E+000	-1,2170987E-003	6,6223488E+001	5,8289533E-003	1,000000000000000E+000	39	5,1716514E-002	4,0289530E-004	0	-7,352530574345716E-005	0,0000000E+000	5,5108279E-002	-7,9885334E-002	1,3678064E+002	1,3678050E+002	1,9070800E-001	-3,0145171E-001	2,6514069E+002	2,6513702E+002	1,3949848E+000	7,7901147E-003	7,3089032E-005	7,7904575E-003	5,3754926E-001	6,248503450619828E-008
1,7782897E+003	1,2841806E+002	1,2332150E+000	1,2842398E+002	-5,5020171E-001	6,618651599698933E+001	1,3995534E+000	-1,2144879E-003	7,2573631E+001	6,6921269E-003	1,000000000000000E+000	39	5,1983327E-002	4,0477898E-004	0	-7,399856350398881E-005	0,0000000E+000	5,5333167E-002	-5,0673302E-002	1,3669971E+002	1,3669965E+002	1,2089939E-001	-2,9264122E-001	2,6512115E+002	2,6511771E+002	1,3541144E+000	7,7863485E-003	7,4773292E-005	7,7867075E-003	5,5020171E-001	-4,732577605316490E-007
1,5844927E+003	1,2846797E+002	1,3772736E+000	1,2847536E+002	-6,1423045E-001	6,663239052484278E+001	1,3995456E+000	-1,2010657E-003	7,2930588E+001	8,3812820E-003	1,000000000000000E+000	39	5,2199248E-002	4,0629777E-004	0	-7,440652486749686E-005	0,0000000E+000	5,5565845E-002	-4,0892061E-002	1,3676138E+002	1,3676135E+002	9,7606733E-002	-3,1860563E-001	2,6523340E+002	2,6522931E+002	1,4748803E+000	7,7831470E-003	8,3441206E-005	7,7835941E-003	6,1423045E-001	-4,079613635080452E-007
1,4127418E+003	1,2847923E+002	1,5323197E+000	1,2848837E+002	-6,8331110E-001	6,707865171937738E+001	1,3995363E+000	-1,1317136E-003	7,3520416E+001	1,0456325E-002	1,000000000000000E+000	39	5,2359607E-002	4,0750465E-004	0	-7,451281223734259E-005	0,0000000E+000	5,5671338E-002	-2,5595061E-002	1,3661522E+002	1,3661520E+002	6,1028488E-002	-3,4437174E-001	2,6509921E+002	2,6509442E+002	1,5933481E+000	7,7822516E-003	9,2815761E-005	7,7828052E-003	6,8331110E-001	-1,062873698457357E-007
1,2587905E+003	1,2858293E+002	1,7060759E+000	1,2859425E+002	-7,6017255E-001	6,752451352716889E+001	1,3995247E+000	-1,1350693E-003	7,4108543E+001	1,3044333E-002	1,000000000000000E+000	39	5,2506384E-002	4,0831050E-004	0	-7,478111038910416E-005	0,0000000E+000	5,5761401E-002	1,1843774E-002	1,3656616E+002	1,3656616E+002	-2,8229984E-002	-3,6255905E-001	2,6515442E+002	2,6514911E+002	1,6778460E+000	7,7757128E-003	1,0317043E-004	7,7763973E-003	7,6017255E-001	-2,682981517615718E-007
1,1217966E+003	1,2868390E+002	1,8738873E+000	1,2869754E+002	-8,3427882E-001	6,796898861497175E+001	1,3995343E+000	-9,5386093E-004	7,5711624E+001	1,6051255E-002	1,000000000000000E+000	39	5,2606799E-002	4,0876304E-004	0	-7,472663908445327E-005	0,0000000E+000	5,5841140E-002	-1,7828777E-002	1,3661005E+002	1,3661005E+002	4,2509068E-002	-4,1387871E-001	2,6530087E+002	2,6529395E+002	1,9163964E+000	7,7693327E-003	1,1313657E-004	7,7701565E-003	8,3427882E-001	5,447130465088823E-008
9,9968164E+002	1,2877684E+002	2,0610204E+000	1,2879333E+002	-9,1691703E-001	6,841531156952260E+001	1,3995574E+000	-9,8555302E-004	7,7246025E+001	1,9781258E-002	1,000000000000000E+000	39	5,2693985E-002	4,0913597E-004	0	-7,461281560740867E-005	0,0000000E+000	5,5891033E-002	2,5721803E-002	1,3660748E+002	1,3660747E+002	-6,1327219E-002	-4,3172038E-001	2,6539185E+002	2,6538431E+002	1,9996932E+000	7,7633830E-003	1,2424974E-004	7,7643772E-003	9,1691703E-001	1,138234770446005E-007
8,9142474E+002	1,2892000E+002	2,1766844E+000	1,2893837E+002	-9,6728969E-001	6,885991817730246E+001	1,3995197E+000	-8,7369542E-004	8,2023819E+001	2,3375804E-002	1,000000000000000E+000	39	5,2760817E-002	4,0919406E-004	0	-7,512030825968153E-005	0,0000000E+000	5,5868831E-002	-7,9275304E-003	1,3653383E+002	1,3653383E+002	1,8891025E-002	-4,7388408E-001	2,6546292E+002	2,6545383E+002	2,1955755E+000	7,7545382E-003	1,3092757E-004	7,7556432E-003	9,6728969E-001	-5,074926522728588E-007
7,9423932E+002	1,2903308E+002	2,4664097E+000	1,2905666E+002	-1,0950499E+000	6,930544910512981E+001	1,3995465E+000	-9,9524739E-004	8,1246284E+001	2,9673798E-002	1,000000000000000E+000	39	5,2813191E-002	4,0922486E-004	0	-7,513901902691092E-005	0,0000000E+000	5,5827506E-002	6,2414464E-002	1,3642256E+002	1,3642249E+002	-1,4861023E-001	-5,0025982E-001	2,6546570E+002	2,6545557E+002	2,3177996E+000	7,7471198E-003	1,4808273E-004	7,7485349E-003	1,0950499E+000	-1,871076722938681E-008
7,0796161E+002	1,2922246E+002	2,6447973E+000	1,2924953E+002	-1,1725096E+000	6,975187917961739E+001	1,3995264E+000	-9,3745487E-004	8,4999825E+001	3,5591386E-002	1,000000000000000E+000	39	5,2860562E-002	4,0898068E-004	0	-7,529859484182735E-005	0,0000000E+000	5,5753462E-002	7,4025653E-002	1,3632297E+002	1,3632286E+002	-1,7612804E-001	-5,3264070E-001	2,6555679E+002	2,6554532E+002	2,4686692E+000	7,7353520E-003	1,5831953E-004	7,7369721E-003	1,1725096E+000	-1,595758149164285E-007
6,3100977E+002	1,2933900E+002	2,8493867E+000	1,2937039E+002	-1,2620432E+000	7,019598786742426E+001	1,3995448E+000	-8,6512015E-004	8,8518219E+001	4,2940360E-002	1,000000000000000E+000	39	5,2876655E-002	4,0872302E-004	0	-7,509923230813648E-005	0,0000000E+000	5,5664238E-002	4,3759841E-002	1,3619061E+002	1,3619057E+002	-1,0401602E-001	-5,9237301E-001	2,6554376E+002	2,6552957E+002	2,7453706E+000	7,7278689E-003	1,7024783E-004	7,7297441E-003	1,2620432E+000	1,993625336908685E-007
5,6233929E+002	1,2961571E+002	3,1038013E+000	1,2965286E+002	-1,3717530E+000	7,063942796850461E+001	1,3995575E+000	-8,1515638E-004	9,1185928E+001	5,2257832E-002	1,000000000000000E+000	39	5,2910250E-002	4,0809164E-004	0	-7,482620108978072E-005	0,0000000E+000	5,5537160E-002	7,2320685E-002	1,3608992E+002	1,3608981E+002	-1,7177729E-001	-6,3222545E-001	2,6572168E+002	2,6570551E+002	2,9320240E+000	7,7106929E-003	1,8464166E-004	7,7129034E-003	1,3717530E+000	2,730312183557565E-007
5,0112231E+002	1,2985994E+002	3,2556481E+000	1,2990074E+002	-1,4361306E+000	7,108387041627429E+001	1,3995392E+000	-7,2753592E-004	9,7552620E+001	6,1276026E-002	1,000000000000000E+000	39	5,2932866E-002	4,0748704E-004	0	-7,503759249901890E-005	0,0000000E+000	5,5413369E-002	-2,3086561E-002	1,3598805E+002	1,3598804E+002	5,4794550E-002	-7,1343255E-001	2,6586856E+002	2,6584796E+002	3,3104427E+000	7,6957671E-003	1,9293641E-004	7,6981853E-003	1,4361306E+000	-2,113914092381796E-007
4,4657214E+002	1,3014862E+002	3,6085613E+000	1,3019864E+002	-1,5882026E+000	7,152760990400566E+001	1,3995436E+000	-8,4573223E-004	9,8763031E+001	7,5866438E-002	1,000000000000000E+000	39	5,2956294E-002	4,0673462E-004	0	-7,483779156856408E-005	0,0000000E+000	5,5231411E-002	-3,1628493E-002	1,3579225E+002	1,3579224E+002	7,4960217E-002	-7,9354763E-001	2,6596637E+002	2,6594086E+002	3,6835215E+000	7,6776212E-003	2,1287330E-004	7,6805716E-003	1,5882026E+000	1,998009304548279E-007
3,9808899E+002	1,3049437E+002	3,8087409E+000	1,3054994E+002	-1,6718180E+000	7,197520941862604E+001	1,3995472E+000	-7,6780515E-004	1,0496839E+002	8,9344546E-002	1,000000000000000E+000	39	5,2971933E-002	4,0575990E-004	0	-7,514122474210349E-005	0,0000000E+000	5,5005565E-002	-8,8622026E-002	1,3556186E+002	1,3556169E+002	2,0967969E-001	-8,6531025E-001	2,6608640E+002	2,6605606E+002	4,0184207E+000	7,6566432E-003	2,2347453E-004	7,6599037E-003	1,6718180E+000	-3,034331735394104E-007
3,5488681E+002	1,3086279E+002	4,0199728E+000	1,3092453E+002	-1,7595152E+000	7,242130634645582E+001	1,3995441E+000	-6,0151028E-004	1,1155965E+002	1,0517471E-001	1,000000000000000E+000	39	5,2987307E-002	4,0471644E-004	0	-7,544940948618589E-005	0,0000000E+000	5,4759841E-002	-1,6233754E-001	1,3530421E+002	1,3530367E+002	3,8336027E-001	-9,4778812E-001	2,6620285E+002	2,6616644E+002	4,4033332E+000	7,6343869E-003	2,3452066E-004	7,6379883E-003	1,7595152E+000	-3,081847440824023E-007
3,1631589E+002	1,3120749E+002	4,1541958E+000	1,3127324E+002	-1,8134513E+000	7,286542223423021E+001	1,3995503E+000	-6,3879584E-004	1,2111897E+002	1,2129243E-001	1,000000000000000E+000	39	5,2980725E-002	4,0359120E-004	0	-7,548471814728368E-005	0,0000000E+000	5,4496024E-002	-2,4898814E-001	1,3502779E+002	1,3502650E+002	5,8678341E-001	-1,0201905E+000	2,6627621E+002	2,6623401E+002	4,7409792E+000	7,6138838E-003	2,4106522E-004	7,6176990E-003	1,8134513E+000	-3,530866109778855E-008
2,8189420E+002	1,3162112E+002	4,2499804E+000	1,3168973E+002	-1,8494095E+000	7,330789910856402E+001	1,3995316E+000	-7,4655213E-004	1,3284557E+002	1,3836209E-001	1,000000000000000E+000	39	5,2981284E-002	4,0231901E-004	0	-7,551239902777727E-005	0,0000000E+000	5,4261073E-002	-4,1387036E-001	1,3487077E+002	1,3486725E+002	9,7421712E-001	-1,1230738E+000	2,6653958E+002	2,6648837E+002	5,2241974E+000	7,5896513E-003	2,4506604E-004	7,5936066E-003	1,8494095E+000	-2,768088049359305E-008
2,5120601E+002	1,3198543E+002	4,4299526E+000	1,3205975E+002	-1,9223512E+000	7,375131528964266E+001	1,3995415E+000	-6,0896773E-004	1,4301811E+002	1,6093415E-001	1,000000000000000E+000	39	5,2969258E-002	4,0110070E-004	0	-7,549033551914747E-005	0,0000000E+000	5,4021332E-002	-5,6636262E-001	1,3468272E+002	1,3467615E+002	1,3313026E+000	-1,2376897E+000	2,6672379E+002	2,6666156E+002	5,7612553E+000	7,5680679E-003	2,5401427E-004	7,5723296E-003	1,9223512E+000	2,206350862979985E-008
2,2392496E+002	1,3240233E+002	4,5109415E+000	1,3247916E+002	-1,9513099E+000	7,419928475091001E+001	1,3995390E+000	-5,7130901E-004	1,5756161E+002	1,8267946E-001	1,000000000000000E+000	39	5,2986581E-002	3,9996163E-004	0	-7,547926957660174E-005	0,0000000E+000	5,3787239E-002	-7,7770221E-001	1,3448100E+002	1,3446861E+002	1,8253170E+000	-1,3601056E+000	2,6694614E+002	2,6687094E+002	6,3362584E+000	7,5439801E-003	2,5702309E-004	7,5483574E-003	1,9513099E+000	1,106594254573243E-008
1,9955338E+002	1,3277216E+002	4,5652509E+000	1,3285062E+002	-1,9692879E+000	7,464569994545309E+001	1,3995377E+000	-5,8361317E-004	1,7470140E+002	2,0629968E-001	1,000000000000000E+000	39	5,2982211E-002	3,9881043E-004	0	-7,615840482294799E-005	0,0000000E+000	5,3552553E-002	-1,0275913E+000	1,3428073E+002	1,3425914E+002	2,4081762E+000	-1,4959188E+000	2,6712234E+002	2,6703131E+002	6,9734268E+000	7,5228056E-003	2,5866489E-004	7,5272513E-003	1,9692879E+000	-6,791352463462520E-007
1,7778128E+002	1,3314130E+002	4,5796690E+000	1,3322003E+002	-1,9700297E+000	7,509577530011302E+001	1,3995495E+000	-5,2432925E-004	1,9547897E+002	2,3100913E-001	1,000000000000000E+000	39	5,2987996E-002	3,9774796E-004	0	-7,679400187026880E-005	0,0000000E+000	5,3362627E-002	-1,2926707E+000	1,3416191E+002	1,3412776E+002	3,0266185E+000	-1,6301572E+000	2,6737726E+002	2,6726904E+002	7,6062875E+000	7,5019416E-003	2,5804475E-004	7,5063785E-003	1,9700297E+000	-6,355970473208132E-007
1,5852898E+002	1,3352168E+002	4,6100335E+000	1,3360124E+002	-1,9774361E+000	7,554513438818685E+001	1,3995574E+000	-5,2544731E-004	2,1777467E+002	2,5929525E-001	1,000000000000000E+000	39	5,2991219E-002	3,9663719E-004	0	-7,717460380163782E-005	0,0000000E+000	5,3142481E-002	-1,5746018E+000	1,3398259E+002	1,3393199E+002	3,6816442E+000	-1,7757318E+000	2,6758218E+002	2,6745367E+002	8,2916775E+000	7,4805031E-003	2,5827542E-004	7,4849604E-003	1,9774361E+000	-3,806019313690130E-007
1,4121979E+002	1,3384482E+002	4,6468730E+000	1,3392546E+002	-1,9884170E+000	7,598757150251186E+001	1,3995490E+000	-4,8555172E-004	2,4252905E+002	2,9198402E-001	1,000000000000000E+000	39	5,2989747E-002	3,9566596E-004	0	-7,741719223817280E-005	0,0000000E+000	5,3060539E-002	-1,9569675E+000	1,3410439E+002	1,3402617E+002	4,5795150E+000	-1,9726818E+000	2,6802982E+002	2,6787097E+002	9,2263880E+000	7,4623441E-003	2,5908038E-004	7,4668401E-003	1,9884170E+000	-2,425884365349877E-007
1,2592673E+002	1,3413382E+002	4,6372776E+000	1,3421396E+002	-1,9800423E+000	7,642978776351083E+001	1,3995372E+000	-5,0904223E-004	2,7254553E+002	3,2536432E-001	1,000000000000000E+000	39	5,2987941E-002	3,9480202E-004	0	-7,715819734854530E-005	0,0000000E+000	5,2966177E-002	-2,2893243E+000	1,3415883E+002	1,3405176E+002	5,3590569E+000	-2,1346514E+000	2,6837183E+002	2,6818558E+002	9,9963341E+000	7,4463408E-003	2,5743505E-004	7,4507897E-003	1,9800423E+000	2,589948896275057E-007
1,1219009E+002	1,3443094E+002	4,7685556E+000	1,3451549E+002	-2,0315530E+000	7,686733495764202E+001	1,3995396E+000	-5,7130976E-004	2,9749438E+002	3,7385905E-001	1,000000000000000E+000	39	5,2994028E-002	3,9396225E-004	0	-7,714498873376740E-005	0,0000000E+000	5,2875776E-002	-2,7119665E+000	1,3421533E+002	1,3406502E+002	6,3504081E+000	-2,3713796E+000	2,6872610E+002	2,6849597E+002	1,1118963E+001	7,4294158E-003	2,6353740E-004	7,4340883E-003	2,0315530E+000	1,320861477789245E-008
9,9968163E+001	1,3462691E+002	4,7993231E+000	1,3471243E+002	-2,0416760E+000	7,731337207215256E+001	1,3995643E+000	-4,0725234E-004	3,3172519E+002	4,2103973E-001	1,000000000000000E+000	39	5,2991901E-002	3,9337054E-004	0	-7,688514074839380E-005	0,0000000E+000	5,2844834E-002	-3,0864685E+000	1,3433856E+002	1,3414369E+002	7,2331896E+000	-2,5633464E+000	2,6903979E+002	2,6877060E+002	1,2032513E+001	7,4185072E-003	2,6446281E-004	7,4232197E-003	2,0416760E+000	2,598479853736096E-007
8,9115646E+001	1,3483511E+002	4,8591790E+000	1,3492264E+002	-2,0639284E+000	7,776323294687609E+001	1,3995564E+000	-4,4230142E-004	3,6753888E+002	4,7671565E-001	1,000000000000000E+000	39	5,2987617E-002	3,9272589E-004	0	-7,701074945650664E-005	0,0000000E+000	5,2845877E-002	-3,5912182E+000	1,3456174E+002	1,3429750E+002	8,4286175E+000	-2,8265502E+000	2,6946045E+002	2,6913263E+002	1,3287796E+001	7,4068462E-003	2,6692744E-004	7,4116546E-003	2,0639284E+000	-1,256087081128484E-007
7,9415741E+001	1,3509764E+002	4,9756875E+000	1,3518924E+002	-2,1092677E+000	7,821171747479821E+001	1,3995409E+000	-3,0359722E-004	4,0277310E+002	5,4561007E-001	1,000000000000000E+000	39	5,3003550E-002	3,9206928E-004	0	-7,749512610703015E-005	0,0000000E+000	5,2918561E-002	-4,0965056E+000	1,3497247E+002	1,3462764E+002	9,6419754E+000	-3,1020892E+000	2,7012109E+002	2,6972528E+002	1,4617662E+001	7,3920265E-003	2,7225059E-004	7,3970384E-003	2,1092677E+000	-4,843766505235051E-007
7,0793182E+001	1,3525676E+002	5,1357970E+000	1,3535423E+002	-2,1745174E+000	7,865204237576836E+001	1,3995581E+000	-3,2447782E-004	4,3774466E+002	6,3022101E-001	1,000000000000000E+000	39	5,2982185E-002	3,9143354E-004	0	-7,736516032587516E-005	0,0000000E+000	5,2983884E-002	-4,5773945E+000	1,3535857E+002	1,3492683E+002	1,0802378E+001	-3,3759754E+000	2,7065329E+002	2,7018359E+002	1,5938175E+001	7,3827016E-003	2,8032649E-004	7,3880218E-003	2,1745174E+000	1,299657811549849E-007
6,3082279E+001	1,3548334E+002	5,3285785E+000	1,3558809E+002	-2,2522900E+000	7,911039149085991E+001	1,3995506E+000	-4,2776024E-004	4,7347974E+002	7,3127556E-001	1,000000000000000E+000	39	5,2988369E-002	3,9080399E-004	0	-7,759690679157372E-005	0,0000000E+000	5,3114995E-002	-5,1215529E+000	1,3591211E+002	1,3536949E+002	1,2132734E+001	-3,6886339E+000	2,7141510E+002	2,7085284E+002	1,7461313E+001	7,3695811E-003	2,8984665E-004	7,3752790E-003	2,2522900E+000	-2,317464656985575E-007
5,6241825E+001	1,3564931E+002	5,6680593E+000	1,3576767E+002	-2,3926926E+000	7,954689881822560E+001	1,3995394E+000	-1,8279173E-004	4,9925952E+002	8,7016654E-001	1,000000000000000E+000	39	5,2998118E-002	3,9035891E-004	0	-7,790877693256416E-005	0,0000000E+000	5,3238939E-002	-5,7313128E+000	1,3638458E+002	1,3570282E+002	1,3619848E+001	-4,0657878E+000	2,7203674E+002	2,7135211E+002	1,9287907E+001	7,3591024E-003	3,0749757E-004	7,3655238E-003	2,3926926E+000	-3,118701409904340E-007
5,0112232E+001	1,3582532E+002	5,9995213E+000	1,3595775E+002	-2,5291600E+000	7,999085838597966E+001	1,3995425E+000	-4,1060845E-004	5,2937054E+002	1,0308253E+000	1,000000000000000E+000	39	5,2991260E-002	3,8976272E-004	0	-7,802984998291585E-005	0,0000000E+000	5,3439036E-002	-6,3006883E+000	1,3710658E+002	1,3627841E+002	1,5046933E+001	-4,4228606E+000	2,7291644E+002	2,7210373E+002	2,1046455E+001	7,3480615E-003	3,2457022E-004	7,3552262E-003	2,5291600E+000	-1,210730503516913E-007
4,4671223E+001	1,3600111E+002	6,2980957E+000	1,3614687E+002	-2,6514244E+000	8,043873054056894E+001	1,3995473E+000	-3,6772940E-004	5,6569586E+002	1,2105597E+000	1,000000000000000E+000	39	5,2985180E-002	3,8917665E-004	0	-7,824855145867170E-005	0,0000000E+000	5,3629585E-002	-6,9053283E+000	1,3780267E+002	1,3680307E+002	1,6567900E+001	-4,7912378E+000	2,7376080E+002	2,7280420E+002	2,2865995E+001	7,3371460E-003	3,3977698E-004	7,3450091E-003	2,6514244E+000	-2,187014757558495E-007
3,9808899E+001	1,3614043E+002	6,7646623E+000	1,3630838E+002	-2,8446224E+000	8,088621434854576E+001	1,3995383E+000	-2,5251592E-004	5,9100861E+002	1,4555963E+000	1,000000000000000E+000	39	5,2981101E-002	3,8868556E-004	0	-7,863490730455589E-005	0,0000000E+000	5,3911522E-002	-7,6123681E+000	1,3870215E+002	1,3747977E+002	1,8373922E+001	-5,2492571E+000	2,7477255E+002	2,7362018E+002	2,5138584E+001	7,3272660E-003	3,6408351E-004	7,3363059E-003	2,8446224E+000	-3,863558458841915E-007
3,5488308E+001	1,3631458E+002	7,2326126E+000	1,3650632E+002	-3,0371656E+000	8,132657191611361E+001	1,3995397E+000	-1,9211340E-004	6,2006842E+002	1,7407025E+000	1,000000000000000E+000	39	5,2970026E-002	3,8804082E-004	0	-7,796268527660545E-005	0,0000000E+000	5,4199837E-002	-8,2889528E+000	1,3967561E+002	1,3821651E+002	2,0136393E+001	-5,6932139E+000	2,7589194E+002	2,7453107E+002	2,7369005E+001	7,3153786E-003	3,8814114E-004	7,3256684E-003	3,0371656E+000	6,722220279504375E-007
3,1629578E+001	1,3653909E+002	7,8044567E+000	1,3676196E+002	-3,2714176E+000	8,175096164288698E+001	1,3995590E+000	-2,6407465E-004	6,4473914E+002	2,0996106E+000	1,000000000000000E+000	39	5,2981690E-002	3,8740077E-004	0	-7,863529449683361E-005	0,0000000E+000	5,4532021E-002	-9,0811901E+000	1,4076384E+002	1,3899947E+002	2,2217304E+001	-6,2182269E+000	2,7716928E+002	2,7553857E+002	3,0021761E+001	7,3000593E-003	4,1726508E-004	7,3119747E-003	3,2714176E+000	-6,726092202281620E-007
2,8187037E+001	1,3667619E+002	8,4399786E+000	1,3693654E+002	-3,5336211E+000	8,222412819875171E+001	1,3995546E+000	-3,0024195E-004	6,6900500E+002	2,5414021E+000	1,000000000000000E+000	39	5,2975398E-002	3,8686092E-004	0	-7,789488463363281E-005	0,0000000E+000	5,4873303E-002	-9,8327703E+000	1,4184245E+002	1,3975883E+002	2,4222872E+001	-6,7386775E+000	2,7835803E+002	2,7643503E+002	3,2662849E+001	7,2887694E-003	4,5009342E-004	7,3026530E-003	3,5336211E+000	7,404098632008023E-007
2,5120602E+001	1,3689040E+002	9,1508284E+000	1,3719591E+002	-3,8244100E+000	8,266837099316763E+001	1,3995618E+000	1,9670242E-005	6,9235632E+002	3,0801239E+000	1,000000000000000E+000	39	5,2981570E-002	3,8617456E-004	0	-7,783983272739149E-005	0,0000000E+000	5,5288281E-002	-1,0704747E+001	1,4316914E+002	1,4067763E+002	2,6593386E+001	-7,3379598E+000	2,7986008E+002	2,7756802E+002	3,5744213E+001	7,2726160E-003	4,8615877E-004	7,2888471E-003	3,8244100E+000	5,505190624132089E-008
2,2385418E+001	1,3712698E+002	9,9221697E+000	1,3748549E+002	-4,1385684E+000	8,306990325223887E+001	1,3995682E+000	1,1474844E-004	7,1655292E+002	3,7320533E+000	1,000000000000000E+000	39	5,2984584E-002	3,8538309E-004	0	-7,759929571620483E-005	0,0000000E+000	5,5725418E-002	-1,1607685E+001	1,4459747E+002	1,4164020E+002	2,9094358E+001	-7,9674177E+000	2,8148434E+002	2,7876718E+002	3,9016529E+001	7,2545283E-003	5,2491977E-004	7,2734947E-003	4,1385684E+000	2,405370111866557E-007
1,9955338E+001	1,3733092E+002	1,0863100E+001	1,3775989E+002	-4,5227723E+000	8,351670351345092E+001	1,3995509E+000	8,8275665E-005	7,3418799E+002	4,5652995E+000	1,000000000000000E+000	39	5,2967571E-002	3,8449196E-004	0	-7,729726660530529E-005	0,0000000E+000	5,6182723E-002	-1,2524456E+001	1,4612198E+002	1,4264479E+002	3,1687473E+001	-8,6416559E+000	2,8319064E+002	2,7997571E+002	4,2550575E+001	7,2364029E-003	5,7241129E-004	7,2590071E-003	4,5227723E+000	3,020291108995479E-007
1,7775894E+001	1,3763248E+002	1,1932504E+001	1,3814877E+002	-4,9550571E+000	8,401435415045125E+001	1,3995473E+000	6,7209592E-005	7,5033826E+002	5,5979133E+000	1,000000000000000E+000	39	5,2984074E-002	3,8352911E-004	0	-7,763548409510340E-005	0,0000000E+000	5,6670383E-002	-1,3569319E+001	1,4776031E+002	1,4363585E+002	3,4667763E+001	-9,4072561E+000	2,8510251E+002	2,8126831E+002	4,6600266E+001	7,2115208E-003	6,2522665E-004	7,2385729E-003	4,9550571E+000	-3,382174897981124E-007
1,5846864E+001	1,3795410E+002	1,3061466E+001	1,3857104E+002	-5,4086299E+000	8,443754889053525E+001	1,3995519E+000	-7,9509788E-005	7,6892664E+002	6,8316212E+000	1,000000000000000E+000	39	5,2984040E-002	3,8236010E-004	0	-7,936008932134589E-005	0,0000000E+000	5,7248473E-002	-1,4682831E+001	1,4972397E+002	1,4483455E+002	3,7950245E+001	-1,0225513E+001	2,8735275E+002	2,8278864E+002	5,1011711E+001	7,1843853E-003	6,8021618E-004	7,2165150E-003	5,4086299E+000	-1,724605226242494E-006
1,4127493E+001	1,3824593E+002	1,4299669E+001	1,3898351E+002	-5,9054718E+000	8,516460943169659E+001	1,3995399E+000	-3,1483974E-004	7,8782367E+002	8,3397779E+000	1,000000000000000E+000	40	5,2999329E-002	3,8133538E-004	0	-7,581913120149208E-005	0,0000000E+000	5,7899971E-002	-1,5769416E+001	1,5183478E+002	1,4612021E+002	4,1263618E+001	-1,1055925E+001	2,8974365E+002	2,8436615E+002	5,5563286E+001	7,1569141E-003	7,4028590E-004	7,1950983E-003	5,9054718E+000	3,540958119853811E-006
1,2587309E+001	1,3860782E+002	1,5709955E+001	1,3949527E+002	-6,4663687E+000	8,569068167003570E+001	1,3995543E+000	-1,6338882E-004	8,0484509E+002	1,0208060E+001	1,000000000000000E+000	40	5,3006228E-002	3,7998584E-004	0	-7,795122911235941E-005	0,0000000E+000	5,8586679E-002	-1,7026018E+001	1,5418121E+002	1,4742374E+002	4,5145176E+001	-1,2010972E+001	2,9243356E+002	2,8603156E+002	6,0855133E+001	7,1230954E-003	8,0733915E-004	7,1687018E-003	6,4663687E+000	-2,132097910867334E-006
1,1216775E+001	1,3894730E+002	1,7300610E+001	1,4002022E+002	-7,0974865E+000	8,609058254235424E+001	1,3995559E+000	-7,5824198E-004	8,2014514E+002	1,2520799E+001	1,000000000000000E+000	40	5,3003360E-002	3,7854075E-004	0	-7,526426250286668E-005	0,0000000E+000	5,9319496E-002	-1,8374561E+001	1,5670570E+002	1,4871623E+002	4,9397980E+001	-1,3054115E+001	2,9529477E+002	2,8766351E+002	6,6698593E+001	7,0871003E-003	8,8242930E-004	7,1418257E-003	7,0974865E+000	2,686966609492732E-006
9,9968166E+000	1,3936247E+002	1,8930496E+001	1,4064232E+002	-7,7355070E+000	8,653633317688946E+001	1,3995569E+000	-6,8459143E-005	8,4100085E+002	1,5236610E+001	1,000000000000000E+000	40	5,3002208E-002	3,7685820E-004	0	-7,822857300910659E-005	0,0000000E+000	6,0131993E-002	-1,9771318E+001	1,5956133E+002	1,5015523E+002	5,3974312E+001	-1,4134059E+001	2,9855588E+002	2,8951770E+002	7,2904808E+001	7,0455321E-003	9,5703971E-004	7,1102353E-003	7,7355070E+000	-2,964310506239909E-006
8,9082127E+000	1,3982806E+002	2,0831196E+001	1,4137123E+002	-8,4734459E+000	8,703286216047127E+001	1,3995467E+000	-7,0910779E-004	8,5766040E+002	1,8621801E+001	1,000000000000000E+000	40	5,3003632E-002	3,7492518E-004	0	-7,568156733262650E-005	0,0000000E+000	6,0987052E-002	-2,1195272E+001	1,6266460E+002	1,5166093E+002	5,8811001E+001	-1,5281679E+001	3,0217334E+002	2,9148901E+002	7,9642197E+001	6,9963620E-003	1,0422986E-003	7,0735752E-003	8,4734459E+000	2,547005676480093E-006
7,9395623E+000	1,4035487E+002	2,2770872E+001	1,4219002E+002	-9,2152519E+000	8,758726789348293E+001	1,3995563E+000	-2,5634156E-004	8,8032678E+002	2,2576937E+001	1,000000000000000E+000	40	5,3001419E-002	3,7275063E-004	0	-7,706099774720820E-005	0,0000000E+000	6,1981071E-002	-2,2697828E+001	1,6628026E+002	1,5340230E+002	6,4162743E+001	-1,6485435E+001	3,0635068E+002	2,9375717E+002	8,6933617E+001	6,9420743E-003	1,1262671E-003	7,0328424E-003	9,2152519E+000	-1,379430414581704E-006
7,0765615E+000	1,4089714E+002	2,4917503E+001	1,4308350E+002	-1,0028999E+001	8,790955777541967E+001	1,3995625E+000	-7,5201149E-004	9,0259576E+002	2,7373055E+001	1,000000000000000E+000	40	5,2999903E-002	3,7041242E-004	0	-7,898336463274366E-005	0,0000000E+000	6,3018136E-002	-2,4223288E+001	1,7012965E+002	1,5515031E+002	6,9803131E+001	-1,7742117E+001	3,1083130E+002	2,9604745E+002	9,4720634E+001	6,8821339E-003	1,2170977E-003	6,9889263E-003	1,0028999E+001	-1,922366885535461E-006
6,3105822E+000	1,4143338E+002	2,7596029E+001	1,4410046E+002	-1,1040656E+001	8,826866048580268E+001	1,3995600E+000	-6,9004367E-004	9,1391138E+002	3,3517109E+001	1,000000000000000E+000	40	5,3001672E-002	3,6781057E-004	0	-7,589584283709862E-005	0,0000000E+000	6,4198121E-002	-2,6049255E+001	1,7454126E+002	1,5681081E+002	7,6648689E+001	-1,9265953E+001	3,1593759E+002	2,9824420E+002	1,0424472E+002	6,8111615E-003	1,3289721E-003	6,9396030E-003	1,1040656E+001	3,087521795645042E-006
5,6245475E+000	1,4229176E+002	2,9964430E+001	1,4541257E+002	-1,1891846E+001	8,866806535817159E+001	1,3995535E+000	-1,7922636E-004	9,4433606E+002	4,0099106E+001	1,000000000000000E+000	40	5,3005707E-002	3,6451942E-004	0	-7,477717403763059E-005	0,0000000E+000	6,5484166E-002	-2,7609512E+001	1,7964520E+002	1,5918840E+002	8,3255341E+001	-2,0583485E+001	3,2203882E+002	3,0148016E+002	1,1321977E+002	6,7293928E-003	1,4171053E-003	6,8769846E-003	1,1891846E+001	1,118668799468035E-006
5,0112233E+000	1,4274298E+002	3,3017590E+001	1,4651184E+002	-1,3023920E+001	8,911286900588311E+001	1,3995585E+000	-7,5816782E-004	9,6190240E+002	4,8851318E+001	1,000000000000000E+000	40	5,2997857E-002	3,6173087E-004	0	-7,847830258339268E-005	0,0000000E+000	6,6895217E-002	-2,9620157E+001	1,8493091E+002	1,6076434E+002	9,1401680E+001	-2,2290602E+001	3,2801959E+002	3,0350732E+002	1,2441927E+002	6,6498113E-003	1,5381543E-003	6,8253870E-003	1,3023920E+001	-3,701128545762099E-006
4,4642835E+000	1,4379930E+002	3,5995876E+001	1,4823610E+002	-1,4053512E+001	8,960832476281212E+001	1,3995491E+000	-1,3729243E-003	9,9041132E+002	5,8400040E+001	1,000000000000000E+000	40	5,2999746E-002	3,5753602E-004	0	-8,051581583585681E-005	0,0000000E+000	6,8565302E-002	-3,1237789E+001	1,9177173E+002	1,6396913E+002	9,9451096E+001	-2,3753996E+001	3,3625479E+002	3,0776843E+002	1,3544698E+002	6,5440829E-003	1,6381164E-003	6,7459950E-003	1,4053512E+001	-2,037513252464124E-006
3,9819033E+000	1,4447136E+002	3,9721230E+001	1,4983241E+002	-1,5373156E+001	9,016150510904845E+001	1,3995574E+000	-1,0621882E-003	1,0062519E+003	7,0719719E+001	1,000000000000000E+000	40	5,3006586E-002	3,5377248E-004	0	-7,738184893778331E-005	0,0000000E+000	7,0241027E-002	-3,3391361E+001	1,9854858E+002	1,6577434E+002	1,0927218E+002	-2,5652332E+001	3,4416772E+002	3,1024570E+002	1,4899341E+002	6,4353216E-003	1,7693394E-003	6,6741235E-003	1,5373156E+001	3,133966898073500E-006
3,5479143E+000	1,4548364E+002	4,2935604E+001	1,5168703E+002	-1,6442554E+001	9,077821535171825E+001	1,3995652E+000	-5,8912649E-004	1,0447910E+003	8,3708145E+001	1,000000000000000E+000	40	5,2995875E-002	3,4937647E-004	0	-7,374432400145210E-005	0,0000000E+000	7,1934745E-002	-3,5003864E+001	2,0589465E+002	1,6865106E+002	1,1810770E+002	-2,7142256E+001	3,5300928E+002	3,1413470E+002	1,6104330E+002	6,3229138E-003	1,8660388E-003	6,5925214E-003	1,6442554E+001	3,637524936331212E-006
3,1629577E+000	1,4674680E+002	4,7196972E+001	1,5414986E+002	-1,7828922E+001	9,146662599773845E+001	1,3995628E+000	-6,7312474E-004	1,0661360E+003	9,9943520E+001	1,000000000000000E+000	40	5,2985445E-002	3,4372686E-004	0	-7,484524683884067E-005	0,0000000E+000	7,4134894E-002	-3,6984810E+001	2,1567966E+002	1,7228384E+002	1,2975359E+002	-2,9014971E+001	3,6481784E+002	3,1903064E+002	1,7695056E+002	6,1756461E-003	1,9862223E-003	6,4871940E-003	1,7828922E+001	-1,100922837388578E-006
2,8183610E+000	1,4748985E+002	5,1406372E+001	1,5619177E+002	-1,9215580E+001	9,223637126098038E+001	1,3995562E+000	-1,1487696E-003	1,0985165E+003	1,1899375E+002	1,000000000000000E+000	40	5,3000949E-002	3,3933253E-004	0	-7,996331592441614E-005	0,0000000E+000	7,6150872E-002	-3,8918358E+001	2,2441371E+002	1,7460327E+002	1,4097946E+002	-3,0849819E+001	3,7517502E+002	3,2209314E+002	1,9238583E+002	6,0456893E-003	2,1071753E-003	6,4023859E-003	1,9215580E+001	-5,118069085575464E-006
2,5112481E+000	1,4909497E+002	5,5924629E+001	1,5923842E+002	-2,0560766E+001	9,309676919516642E+001	1,3995553E+000	-1,4682114E-003	1,1332544E+003	1,3977771E+002	1,000000000000000E+000	40	5,2994017E-002	3,3279668E-004	0	-8,386638577079995E-005	0,0000000E+000	7,8500889E-002	-4,0455395E+001	2,3588243E+002	1,7948561E+002	1,5305370E+002	-3,2456497E+001	3,8940613E+002	3,2858057E+002	2,0897833E+002	5,8798636E-003	2,2055015E-003	6,2798914E-003	2,0560766E+001	-3,903069846383810E-006
2,2398233E+000	1,5046693E+002	6,1500732E+001	1,6255042E+002	-2,2231432E+001	9,405915945422021E+001	1,3995453E+000	-1,3848075E-003	1,1553833E+003	1,6539047E+002	1,000000000000000E+000	40	5,2998003E-002	3,2604040E-004	0	-8,252326803160799E-005	0,0000000E+000	8,1124969E-002	-4,2434593E+001	2,4881876E+002	1,8364021E+002	1,6788998E+002	-3,4472649E+001	4,0527484E+002	3,3410715E+002	2,2939072E+002	5,6946217E-003	2,3275772E-003	6,1519374E-003	2,2231432E+001	1,343117739191962E-006
1,9950197E+000	1,5156798E+002	6,6723427E+001	1,6560455E+002	-2,3760109E+001	9,513596982532181E+001	1,3995434E+000	-1,1244556E-003	1,1956239E+003	1,9409160E+002	1,000000000000000E+000	40	5,3006459E-002	3,2007851E-004	0	-7,705152982884061E-005	0,0000000E+000	8,3527409E-002	-4,4191525E+001	2,6095914E+002	1,8711128E+002	1,8190393E+002	-3,6282711E+001	4,2014188E+002	3,3867926E+002	2,4862735E+002	5,5266623E-003	2,4329536E-003	6,0384814E-003	2,3760109E+001	5,471738202767376E-006
1,7775893E+000	1,5365807E+002	7,2253822E+001	1,6979816E+002	-2,5184071E+001	9,634230921597919E+001	1,3995434E+000	-8,9457317E-004	1,2391614E+003	2,2437970E+002	1,000000000000000E+000	40	5,3002398E-002	3,1214944E-004	0	-7,242758647370890E-005	0,0000000E+000	8,6241744E-002	-4,5524994E+001	2,7628351E+002	1,9356369E+002	1,9714380E+002	-3,7806679E+001	4,3947470E+002	3,4722174E+002	2,6939761E+002	5,3295358E-003	2,5060796E-003	5,8893454E-003	2,5184071E+001	4,623943355131708E-006
1,5846864E+000	1,5562854E+002	7,9110039E+001	1,7458133E+002	-2,6945417E+001	9,769198770669755E+001	1,3995507E+000	-8,8418688E-004	1,2695365E+003	2,6068304E+002	1,000000000000000E+000	40	5,2995745E-002	3,0355906E-004	0	-7,323279971720896E-005	0,0000000E+000	8,9328825E-002	-4,7242828E+001	2,9427164E+002	1,9977885E+002	2,1606528E+002	-3,9710533E+001	4,6199881E+002	3,5540741E+002	2,9517532E+002	5,1061511E-003	2,5955897E-003	5,7279896E-003	2,6945417E+001	-8,052132435000639E-007
1,4122353E+000	1,5703432E+002	8,6118881E+001	1,7909840E+002	-2,8740719E+001	9,920387889852282E+001	1,3995458E+000	-1,0101758E-003	1,3086234E+003	3,0257150E+002	1,000000000000000E+000	40	5,3001981E-002	2,9593776E-004	0	-7,968167509898032E-005	0,0000000E+000	9,2228629E-002	-4,8959801E+001	3,1164874E+002	2,0462494E+002	2,3506078E+002	-4,1607403E+001	4,8368768E+002	3,6165924E+002	3,2117966E+002	4,8956587E-003	2,6848188E-003	5,5835228E-003	2,8740719E+001	-6,448875381771360E-006
1,2582541E+000	1,5925026E+002	9,3307533E+001	1,8457233E+002	-3,0366789E+001	1,008969576989766E+002	1,3995450E+000	-1,1095583E-003	1,3556111E+003	3,4644583E+002	1,000000000000000E+000	40	5,2992698E-002	2,8711074E-004	0	-8,768065929421250E-005	0,0000000E+000	9,5073573E-002	-5,0154018E+001	3,3113904E+002	2,1216942E+002	2,5423848E+002	-4,3098160E+001	5,0866571E+002	3,7141968E+002	3,4754602E+002	4,6746274E-003	2,7389466E-003	5,4179304E-003	3,0366789E+001	-7,998984195232175E-006
1,1224822E+000	1,6204800E+002	1,0205595E+002	1,9150711E+002	-3,2202248E+001	1,027931217890728E+002	1,3995531E+000	-1,0592854E-003	1,3893202E+003	3,9455652E+002	1,000000000000000E+000	40	5,2995794E-002	2,7673016E-004	0	-9,199788362113334E-005	0,0000000E+000	9,8297931E-002	-5,1409637E+001	3,5521222E+002	2,2156296E+002	2,7764288E+002	-4,4706352E+001	5,3974866E+002	3,8361096E+002	3,7969885E+002	4,4184900E-003	2,7827136E-003	5,2217380E-003	3,2202248E+001	-4,317224326920842E-006
1,0000616E+000	1,6426878E+002	1,1185204E+002	1,9873376E+002	-3,4251289E+001	1,049173380766006E+002	1,3995422E+000	-9,2147128E-004	1,4228184E+003	4,5070660E+002	1,000000000000000E+000	40	5,2996811E-002	2,6667240E-004	0	-8,934339905414284E-005	0,0000000E+000	1,0160697E-001	-5,2922478E+001	3,8101791E+002	2,2971381E+002	3,0398392E+002	-4,6545780E+001	5,7283667E+002	3,9398260E+002	4,1583594E+002	4,1592182E-003	2,8320479E-003	5,0318576E-003	3,4251289E+001	2,654484566990502E-006